subject,activity,acc_x_mean,acc_x_std,acc_x_min,acc_x_max,acc_x_mad,acc_x_energy,acc_x_iqr,acc_y_mean,acc_y_std,acc_y_min,acc_y_max,acc_y_mad,acc_y_energy,acc_y_iqr,acc_z_mean,acc_z_std,acc_z_min,acc_z_max,acc_z_mad,acc_z_energy,acc_z_iqr,gyro_x_mean,gyro_x_std,gyro_x_min,gyro_x_max,gyro_x_mad,gyro_x_energy,gyro_x_iqr,gyro_y_mean,gyro_y_std,gyro_y_min,gyro_y_max,gyro_y_mad,gyro_y_energy,gyro_y_iqr,gyro_z_mean,gyro_z_std,gyro_z_min,gyro_z_max,gyro_z_mad,gyro_z_energy,gyro_z_iqr,corr_acc_x_acc_y,corr_acc_x_acc_z,corr_acc_y_acc_z
1,WALKING,-0.009256686177072227,0.4537874237594226,-0.8795454832971432,0.8178023884632171,0.399894894045047,0.20600871220119454,0.8208416174173507,1.0203606905908442,0.464627008089562,0.13932125708974977,1.948864247905709,0.40081956228568705,1.257014195549282,0.8039931055962208,0.09943890339995114,0.46244101689669614,-0.7249144161807395,0.942161488660914,0.40745326192615616,0.22373978961783522,0.8137326118693131,0.18354190733848103,17.254709790929102,-24.965981560526487,25.486521390574126,15.623974930242355,297.75869760093406,34.84555365732814,-1.5558910191239854,16.653631727457935,-25.699000663761375,24.562544235702994,14.881891754398673,279.7642465771843,32.3704315633804,-1.421010805693138,16.64218910105705,-26.6374957180547,26.284948831488776,14.875149663011351,278.9817297852387,32.63519015808618,0.5273269092309226,-0.5887186282109012,0.08394694862059934
1,WALKING,-0.004060577507831025,0.45880776993785344,-0.8538770958624502,0.7820647047840363,0.3977142601115134,0.21052105804504334,0.7817672729075555,0.9752001625766584,0.45964029564185194,0.08494569369170116,1.8993806509789044,0.402095669371537,1.16228455846727,0.8030835227589641,0.10133473794264161,0.4516313690298869,-0.6404933128396592,0.8570581538387602,0.3982478054993701,0.2142396226057137,0.8208166598359881,1.4092175828188616,16.672428770598223,-26.31888712245275,25.110964295268424,14.943221106064584,279.9557753063972,32.58869777686388,-1.329945335774752,16.99377277515401,-26.834052157725147,26.97288636994776,15.18354684814014,290.55706772971473,33.15081028946811,-0.7002375666642104,16.766297051548488,-26.527815070609627,24.885625527244287,15.145733461178487,281.5990494705313,33.51025810815028,0.8541079006896328,-0.7225059221030055,-0.8549686790634409
1,WALKING,-0.05479825916787799,0.4556273554367767,-0.8996737678161009,0.8637155092751801,0.39763279016441333,0.21059913623014073,0.7891488102541417,0.9830943399723724,0.4596249649714909,0.16436172727690063,1.8098972223814147,0.4039188969409234,1.1777295897107587,0.8074422310365899,0.10388618667756146,0.44533114168985594,-0.7914064385896935,0.8878773623072798,0.3915482321329577,0.20911216554119566,0.7576714329271436,0.6478829319431194,17.000876898578802,-24.644580859893175,24.91218447873291,15.297043951929481,289.4495676141335,33.63361767128471,0.8006833177446484,17.03625055464357,-24.766293374780272,26.405964912143745,15.40528220037054,290.87492673590793,33.41539108612643,-1.34158044562503,16.66653535238512,-24.93065134093781,26.153438165967465,14.948202897730987,279.57323874438646,30.914478380242315,-0.6468503810568939,-0.6028403401379904,-0.03791127246868811
1,WALKING,-0.04705230760497592,0.43203176134795584,-0.9415739858394284,0.8123553118265795,0.3745134350117513,0.18886536246437036,0.7037065533770606,1.0493780407031523,0.4414249820209456,0.10568127763505006,1.8179372848008581,0.39047550561046873,1.2960502870621795,0.8254194009300464,0.0748758059271023,0.45117312562849066,-0.7574411303066748,0.8997827617659292,0.39425185184963135,0.2091635756026149,0.7800688415098734,1.243269734351565,17.09368957372207,-25.458953986015096,26.177205158315676,15.3686849593165,293.73994287512915,34.31015407887874,-0.5049344056184704,17.12864721178864,-27.103477667305196,25.755084375870027,15.39556421423304,293.645514059892,34.27176018906383,1.6139622030836676,16.628155290411932,-25.688028028630804,24.65932385236318,14.902854643036289,279.10042235503704,32.55457762460498,-0.018951027232024967,0.6778371292838976,0.6292176836154875
1,WALKING,0.04510162709195788,0.43845245560269025,-0.8641830319117613,0.8561629083343962,0.38010326415549184,0.1942747125903711,0.7190925623668314,1.0298547282361512,0.44384702178357516,0.19416409015542813,1.8144531780679523,0.38668817470335715,1.257600940016506,0.7788758140944843,0.09079614051522601,0.4581849263501003,-0.7359064566555469,0.8843130919020575,0.40502346743277723,0.21817736586690745,0.8361167822458737,1.2937031714549194,16.929094775179195,-25.427403283256627,25.565781363289027,15.202506673002642,288.2679178028321,34.15965041595667,-0.8504464845319262,16.88327510214088,-24.538732900135834,25.451070552093565,15.261389888938053,285.7682373976228,33.7964097500363,0.05716261698545744,17.17271771064595,-25.624144891342944,27.327993162055005,15.50061651370229,294.9055011343138,34.07364551118671,0.9215851527085948,-0.818184083806724,-0.7084887637305921
1,WALKING,-0.01022095240494343,0.45967112538064014,-0.9105748786178788,0.8153321480955233,0.40572533289607593,0.2114020113767683,0.8059174893857992,0.9815955463997411,0.4622738650450631,0.16826613093881143,1.8959176465410863,0.4108808633573827,1.1772269430155078,0.793044164976674,0.07705822695427997,0.45598747081082563,-0.7095957535477055,0.9226716497491317,0.3999521745505542,0.2138625438777909,0.8220259476260687,1.3372302723918859,16.635854597264093,-25.143863554215226,26.674816302850658,14.810619564598028,278.5398429827141,31.86809788328599,0.6704213798558906,17.141462909321525,-26.472167733026396,26.93420151431653,15.408747909507465,294.27921549821343,33.354843188445,-1.4651881096641342,16.89638075809661,-25.52834274559481,24.120122943718812,15.081472174194808,287.6344589192784,32.07869758216306,0.9174998960901467,0.8292511308325832,0.9504352762141157
1,WALKING,-0.01105333488851356,0.4482376834641638,-0.814683137979812,0.8774088692687487,0.3904374702361083,0.20103919708947754,0.7401983046685807,0.9615532551594187,0.4549322737169165,0.19541890433778994,1.7817980486834188,0.3926187522790755,1.1315480361769177,0.7717213531618765,0.09317986732539586,0.4540322376246242,-0.6801463644958778,0.9352391384730822,0.40024663356163526,0.21482776047720156,0.7876580546862707,-1.4992035394255037,16.714509528408115,-25.413039212205888,24.671584605979323,14.862378530912569,281.62244002787156,32.313700731018464,-0.5750110703168618,16.944882156928035,-26.112882186797346,26.41357488248068,15.212356475910024,287.459669043165,33.96412700219257,0.43693687390537367,17.34046058328834,-26.20385344630474,26.087177044813423,15.572950995584378,300.8824870723549,35.379576167806285,0.8974757292203036,0.6462651765327487,0.33137013735671755
1,WALKING,-0.0498968016865418,0.43874706508639105,-0.8390392250706488,0.7885617884649705,0.3864834094206231,0.19498867794046792,0.7645754806630789,0.9635457668486679,0.4412259444644416,0.11943984826930526,1.8945539720831275,0.3818220259517875,1.123100778880526,0.7863360656580174,0.10541135945588581,0.4655838116953146,-0.7261516670702028,0.9143234472053964,0.41403229900811744,0.22787984041507608,0.8465731278624209,1.401160241691815,16.963901428009446,-25.82095864751694,26.957235473469623,15.267010215861626,289.73720168211884,33.48237623666525,-0.9153736357750625,17.08293711065757,-25.8230517093045,25.459379198756288,15.410126352572332,292.66464921975364,33.671235801570575,1.3845111611298313,16.714575924564766,-26.110823424703273,25.062299629667425,14.848315361378724,281.29391949333325,31.86294812935666,0.8140718214901088,-0.8327623273457319,-0.592417717680099
1,WALKING,0.005694213987815109,0.4413387627777663,-0.8144472077152861,0.8490703207681143,0.3852136112242743,0.19481232760314848,0.7423929614091272,1.0039665683673473,0.4527307421598168,0.1599436277489702,1.7875482666999316,0.40002108421417276,1.212913995295886,0.802736635133187,0.07403007933881452,0.4559986232569296,-0.7193241415431721,1.0071254837252428,0.3941266011180378,0.21341519705912637,0.7733031369356184,-1.317355248712658,16.836330015544203,-25.38163035274709,25.285398700040975,15.098041232407514,285.19743324362537,33.425262978059905,-0.6868101842230976,17.16775388987487,-24.59929273454728,24.699474897052205,15.524631620431908,295.2034818524663,34.45984901453936,-0.5325758123869401,17.323923246078156,-26.826112333203213,26.319734786652702,15.665631904798232,300.40195363194675,35.071478788547665,0.7575267852964414,0.08193769882980445,-0.4743132820218004
1,WALKING,0.0011356300856870003,0.44297198913714936,-0.9167606757067297,0.8269471442211755,0.38237035941053577,0.19622547281581426,0.7559336316023993,1.025041994528872,0.4409036092412929,0.174785608398013,1.7146441903891358,0.3876960683021611,1.2451070831897268,0.7434766053502712,0.06016499251736341,0.4400545978661828,-0.7649547565459683,1.0525744176197465,0.38079152278665496,0.19726787542778226,0.7438108281124693,0.3656382319288793,17.241524602123388,-26.5917687975437,25.319512083398447,15.485059249693577,297.4038619222741,34.05815246191089,-0.794500274092834,17.299108186152054,-25.957787212351676,25.941781091609435,15.552258649637759,299.8903747217266,35.449660379523166,0.4824339428460429,17.366888078161107,-25.999915544511037,26.438954074069333,15.653934075081956,301.84154402858434,35.99456349143796,0.2178199389381525,-0.7623368413843072,-0.6229806695886673
1,WALKING,0.050173351626164236,0.4458710040401465,-0.7984771241968738,0.9041555053179968,0.383648932363338,0.20131831745717105,0.771950377338014,0.9591043074933431,0.45560729063359906,0.14174679550431438,1.7757752422213993,0.4018291371717957,1.127459075930774,0.7936963258779639,0.11267309358644007,0.4512023811006681,-0.7865285300074242,0.9498697220839187,0.3956059691860465,0.2162788147292512,0.768501535261228,-1.4984024336919957,16.655833143754833,-25.199095218212484,24.611989227473746,14.913871843812316,279.6619875658961,31.53024385624841,0.5110562968412978,17.120816766109535,-26.65716506864342,25.098237294608037,15.482064501174584,293.38354527723845,33.75673202951738,0.5240368333132093,17.06285252513991,-25.399421760029917,24.55588832795677,15.337719486651814,291.41555089734226,33.66980023827818,0.12331275245622669,0.39890133572566633,-0.5835023019667077
1,WALKING,-0.003754004524194281,0.4572260114019722,-0.9239745108914,0.7720676327560044,0.4002973578832839,0.20906971805252406,0.8425053299766148,0.9977776891260411,0.4506126100232603,0.13205866609444322,1.8130383787509698,0.3914343478037787,1.1986120412296777,0.8223803739907614,0.09906863471419908,0.4624813180763366,-0.7686305733392795,0.9790107924994174,0.40721775098199137,0.223703563953761,0.8268531017925488,-0.4809576984428803,17.14652854107486,-25.91572154719774,26.414637218678777,15.540513029582511,294.2347613175863,33.50729694897633,-1.2646704548434489,16.88615570407927,-27.77009790943071,26.878015279478166,15.14429813545395,286.74164582176275,33.393312404231594,-1.2176168592229444,16.968901531557922,-25.468205351188377,25.848101087312138,15.251822556101047,289.4262100035727,33.839239397443734,0.8917737998265667,0.9759890116211588,0.8940446575720942
1,WALKING_UPSTAIRS,0.058683607514282296,0.5683238176273495,-0.9464375220719413,1.0776346357637425,0.4989669387859896,0.32643572747341515,0.9704123673279097,1.011392790566953,0.5792009217879198,-0.04274528365687638,2.2046894933019843,0.5042565949830117,1.3583890846107851,1.0464894959261706,0.1575898009081986,0.5649466812212799,-0.9638582944245736,1.1805914437302478,0.49457448859366576,0.34399929797322415,1.0086823793058715,-0.5340658270421416,21.102914011530725,-31.28935180528241,30.4926491394014,18.94905159954847,445.61820608567405,41.406164220764154,0.29784020289421875,21.272774076332315,-33.09180968673789,31.20618536282074,19.117350629368758,452.6196256891362,41.59731200246125,0.8770777153398264,21.574496479567017,-31.919639966094454,32.30292684682817,19.509738326731593,466.2281636655953,43.43185185853085,-0.47144040956303634,0.8818562003746692,-0.7270502377294973
1,WALKING_UPSTAIRS,0.016734845880581533,0.5720097724375808,-1.037772114269225,1.0473638977624835,0.4989394010214958,0.3274752348307397,0.987685845209356,1.1042405273454774,0.5598569895860925,-0.07763838350688201,2.0722708358358295,0.4875263277390159,1.5327869910206204,1.0108492114276086,0.16485664914535214,0.5727877641852993,-0.948622166938009,1.2260884930232552,0.50994036284762,0.3552635375678278,1.0036944886811867,0.45982648896522826,21.053768710766885,-32.03527097510802,32.59039203708994,18.857531373047504,443.4726173264206,41.80714474464852,-0.5998803899887617,21.29907705570215,-30.639543281077344,31.570409809941353,19.287060598492747,454.0105399070307,42.71663645876811,-0.24903928698341027,20.998574738387507,-31.045292437011394,32.02497238271038,18.729736193483514,441.0021616101072,42.39166328251186,-0.03970675105796694,0.0916059268081363,-0.8568797474181249
1,WALKING_UPSTAIRS,0.07779728470226507,0.5887944459303446,-1.0045348763857471,1.0716959632633223,0.5282358881920214,0.3527313170654668,1.0766758551152917,1.1247591191792585,0.5760846652277415,0.05890800129514115,2.3116439005658322,0.5103979103577316,1.5969566176874608,1.031727473899993,0.19820095420323383,0.5599989632968684,-0.9393023125981951,1.2530358135419062,0.4882212497910489,0.3528824571406397,0.9871843079508367,-1.0826161240413847,21.334697816619872,-31.800107780421662,30.980268119731072,19.208269303293903,456.3413885985191,42.784083344726085,-0.022840344284020958,21.034772083729575,-32.03213041706706,31.411781892213384,18.878573508570145,442.4621582957761,40.026364280409794,0.6514215431637185,20.990960185068555,-31.65163831214531,30.92797569204578,18.741541042956683,441.04475951803124,39.48433604425408,-0.870481604428196,-0.8451306823586096,0.9335606669235756
1,WALKING_UPSTAIRS,-0.013327061264578154,0.5609168670485984,-1.104942912955691,1.020944276175468,0.49432134540167344,0.31480534230156487,1.0313071361739459,0.9937823858862742,0.548385167675502,0.02917959463950448,2.162998833780576,0.47433192966466586,1.288329722624304,0.9519572091516627,0.1162922441454352,0.5767940114547521,-0.9084965354351965,1.2958188963104635,0.5013275385082205,0.3462152176984461,1.0181642728937885,-0.2812825641748624,20.911723735189767,-31.874737812260474,31.690563031695376,18.684423318232447,437.37930945780784,38.47379822810902,0.5919810931011201,21.57379834784871,-31.88351028598298,32.367664386579065,19.485467896968505,465.7792167682289,42.988947421746616,0.6584331855542078,21.090033129619975,-30.65436026693377,31.712206712468387,18.944890935099448,445.22303166830716,41.90365385855218,0.8286915134698518,0.8922001031217717,0.5761848381990182
1,WALKING_UPSTAIRS,-0.009295780805658177,0.5285470218583067,-0.9240103625810261,1.1013459754247015,0.4631976446731614,0.27944836585607213,0.9235521282662708,1.0572181584860116,0.5577238951894827,0.010281062714901257,2.0694691837450634,0.49118008256244594,1.4287661778978826,0.9606468654826589,0.1537549332693982,0.5652835504417503,-0.8068411041522413,1.1504330596848247,0.502435852852837,0.34318607190470785,1.0275377623184245,0.8876383394618613,21.37667352776346,-32.410769285271805,34.388711351912214,19.26590663084363,457.7500729342658,42.45441065617695,-1.1836518027638274,21.36184340334382,-32.147408140297536,31.153329836731743,19.190752235679525,457.72938517916987,42.499277543475415,0.8580120654928072,21.33422934963718,-30.876483454737652,32.24169691958611,19.2470792200155,455.8855266474517,42.52165512051643,-0.1709281998535671,-0.008967367766964803,-0.8593760082981402
1,WALKING_UPSTAIRS,0.0754266213276177,0.5694654141434023,-0.9501527686445711,1.1331105729784752,0.5025547370795849,0.3299800331104165,1.0300068266431461,1.0932730100959767,0.5624519357162167,0.007273133249903557,2.133817370936148,0.48895085072771133,1.5115980545952366,0.9423541588600373,0.12554994225260724,0.5325559004449739,-0.7775940128936842,1.088054023761952,0.4708445144085892,0.29937857509838994,0.8685368733755894,-0.7789527413016446,21.43933220109811,-32.1019030257504,32.498889840824276,19.403545342943346,460.2517326022238,42.42346191308087,0.14476010447645318,21.181166598554764,-32.313965081222634,33.49558467274024,18.867660917463294,448.6627739635801,40.993620869696926,1.0387879227389423,21.485199063447986,-30.76725434138615,32.35415672242209,19.469879910391384,462.69285914441457,42.55397246493865,-0.6854047119117209,-0.596876945519559,0.7469353829349215
1,WALKING_UPSTAIRS,0.0423972905855032,0.5354494515473999,-0.892634438232724,1.0941948611960772,0.4707915258238682,0.2885036454114029,0.9731440895327177,0.9796386850818095,0.5552797649186118,-0.05235918139493029,2.108781198979409,0.48342443407370433,1.2680275706368858,0.9514564309492068,0.12727587566723264,0.5467489554884545,-1.028800447984601,1.212313204507469,0.4769555499742974,0.3151335688545768,0.9200043771848209,0.7606530603127981,21.51154516237993,-32.326142305701154,33.67762164707728,19.359614220238598,463.3251683512746,43.180828804557095,-0.23244665059703118,21.23819077583789,-31.776358634218873,33.589467997360295,19.100050411103823,451.11477887625944,42.15911336786962,0.8269248135405064,21.205148092652017,-33.15640945397344,32.330382389530214,19.02783351910947,450.3421102785525,41.97564319493543,0.6872150344141644,0.9575507243312666,0.7360209082919427
1,WALKING_UPSTAIRS,0.07182290715583371,0.592982658237711,-0.9971498421068876,1.1001330678058134,0.526067036608296,0.35678696296297746,1.0864112205340628,1.0733329576548143,0.5681984977062144,-0.010494551229695587,2.091495556973638,0.5006322529284699,1.4748931707836306,0.9856144569525465,0.20584089354538473,0.5420813989379601,-0.8629963018706093,1.240639745713004,0.47490252361498997,0.3362227165300984,0.926979274187785,0.8111268607446329,21.304736294299758,-32.59283038436887,32.58859468012611,19.13896002495255,454.5497153538747,41.782254003953526,-0.8475381878167974,21.477704559598635,-32.17236124749101,32.4759220600508,19.407599493551025,462.01011412921173,42.220021037313046,0.9062720459683808,21.40169131020602,-32.11457307706827,30.696266028639503,19.303394964718173,458.8537199586516,41.77068533825694,0.8151935858112477,-0.8511851527144317,-0.7156949339784753
1,WALKING_UPSTAIRS,-0.01056035624193883,0.5409907929991925,-0.8755890454029449,0.9766173328523182,0.48041338691426394,0.29278255923385177,0.9682901487814061,1.0956450833301696,0.5704646577645994,-0.02662465516484447,2.1975031804546243,0.5044450463686141,1.5258680743840558,0.9877142976452188,0.09053147235410941,0.547711624601874,-0.8654912449010392,1.1138760080319934,0.4832441433259994,0.30818397121062696,1.0230108169034504,0.29347323888586163,20.753043331214958,-31.189839761829706,31.814306732995956,18.668338044782452,430.77493404922774,41.676307190285385,0.05039914515655097,21.008545291323003,-32.067720292260574,32.08499417176873,18.740323694235848,441.36151533140236,41.769033277627244,-0.8305652875190938,21.46424476788927,-32.762637041641604,34.04911418473885,19.333675115832154,461.4036421526935,43.07221990861608,0.1478734570096165,0.9711571896828823,0.15233306008361525
1,WALKING_UPSTAIRS,0.028590296530572996,0.5362373628651924,-1.0457882010207202,0.9954210399976006,0.47428324327471616,0.2883679143883221,0.9489704435154247,0.9942456668651036,0.5380295433462331,-0.007043568169460945,1.9449978956219656,0.47482619316044633,1.2780002355933906,0.9559324643004907,0.10868261962521586,0.5855610692603641,-0.9315844174460265,1.1460498129028873,0.509838509997864,0.3546936776419403,1.05707020077126,0.755956793371079,20.88916396048288,-31.726151973316004,31.73524727363514,18.745884433149534,436.92864164138064,40.21455430405952,-0.3691286637067893,21.217918468505808,-32.534862275097986,32.668110608200195,19.07438818760727,450.3363201065298,43.00536380130192,1.2260505777508346,21.487492384931315,-32.025456261115494,31.8744044569331,19.301937726981954,463.21552901168434,42.9864366132535,0.7503766950131038,0.3000416936956082,0.8180770562375242
1,WALKING_UPSTAIRS,0.05069844451071965,0.5867698630698871,-1.0258193736589605,1.1640254702226152,0.5182166184108794,0.3468692044828605,1.0315581261945916,1.0242031622878758,0.5636600619852347,0.05324888448963773,2.061370945531056,0.5002318485852402,1.3667047831176833,0.9801945324357973,0.12838623338949742,0.5842407139329088,-0.9817511589051037,1.1791478757355207,0.5147528334726993,0.35782023674077745,1.0311224816493612,-0.13564954128609336,21.105885717329873,-32.181473154518315,33.619563946828706,18.724300604797403,445.4768127110402,42.120045329341494,1.1798882950399836,21.510692242240538,-31.831749501867407,33.26771965244358,19.437391148612377,464.10201712915966,42.371569016812046,0.32939905441771433,20.842805282796473,-32.80442679177173,31.28992715631258,18.603211477049012,434.5310357936198,40.56817149220687,0.8377549492915145,0.9194110545537539,0.941917436079548
1,WALKING_UPSTAIRS,0.0012120126785748705,0.5273051129303881,-0.8847682326392564,1.0038190388523778,0.4639844689319651,0.27805215109726233,0.9611288994601389,1.003526091052596,0.5380253174142349,0.022008319620755945,2.0985993983146436,0.4697788536351751,1.2965358576019916,0.9672955742530788,0.1480656608290818,0.5405508307110332,-0.8968895837351194,1.1649658528981908,0.46473750745140857,0.31411864049914073,0.921468010319384,0.5414626466086916,21.426074531393652,-32.27393835276594,31.170512343845772,19.228571803089842,459.36985162250824,41.114007001751204,-0.3116503898565035,20.9858275235898,-32.03260079869854,32.01165461228215,18.818266354913696,440.5020828153569,41.46461595325937,0.5837231141917522,21.126070330256756,-31.506387756812405,31.77001496426052,19.021299106470035,446.65158027299645,41.252686186223535,0.955199031666058,0.8721729979064977,0.8027089916118849
1,WALKING_DOWNSTAIRS,-0.07306423807643558,0.6057176091528323,-1.2437708325927386,1.224395529306204,0.5275926862509888,0.3722322049235135,1.0283010692325278,0.9339046079490734,0.6251108577057172,-0.23914722416917883,2.0566283152159226,0.5474758938089459,1.2629414011700901,1.0944979464517839,0.13146366666388332,0.646580934913562,-1.14719136044626,1.3272638600989035,0.5688946844820844,0.43534960104640863,1.0856700987762793,-0.32257042215018916,23.601626470496054,-36.1458218059794,35.86848767131988,21.07507415419853,557.1408237300662,48.211412060064646,0.9125009849028387,24.482036669920728,-37.21464788865062,37.17902605003278,22.08720587788762,600.202777554792,49.26641678709841,-0.12802492606870483,23.76092180357983,-35.4765003531799,37.56640485708789,21.269881702959097,564.5977953375302,44.965344388066846,0.9596990227714105,-0.7308310951982884,-0.6936945033794135
1,WALKING_DOWNSTAIRS,-0.026973516905424464,0.6620946252318894,-1.3396782040760693,1.126765095954616,0.5821310111038508,0.4390968633752034,1.1323751152593324,0.9510837351654917,0.6200528805433893,-0.2931867875214963,2.083621671655046,0.5452379522795021,1.2890258459664978,1.074549348955713,0.11806601611377952,0.651748858275273,-1.062936405759715,1.3201385949774946,0.5736375171748992,0.43871615842410105,1.1421548212626949,0.4294584826917035,23.584394819367667,-35.8510892941847,36.13399264766548,21.122123501326552,556.4081135841723,45.794585272974174,0.12220454820538432,24.087651983612417,-36.38499279197746,38.550762118841135,21.485084393393393,580.2299120352293,45.97072880438432,0.9255117791078741,24.23352729593535,-35.742312300779055,39.88886705012525,21.745558765304203,588.120417256111,48.04195590935978,-0.4773773656088022,-0.734804449978603,0.8513221786167104
1,WALKING_DOWNSTAIRS,-0.02651852556360708,0.6775652580974753,-1.3952834478295755,1.2471205887450338,0.5889373655497853,0.45979791117876595,1.1413134133948473,0.9610951852945808,0.6282865488334554,-0.2490778952028361,2.1025923224450525,0.548299805334512,1.3184479426414786,1.1120736737102639,0.07825362831749845,0.6437112224721471,-1.1900318992110144,1.2910254009474846,0.5649234899642673,0.4204877682814392,1.1768186247263022,0.06281452928561182,23.932514631982464,-35.200841677119534,35.63323966771149,21.351263111173626,572.7692022751442,47.65838142763347,0.41285309167386297,24.12891315565285,-35.95859152582597,35.124812416925145,21.722812474157152,582.3748977483419,49.73094082128176,0.9832641131949659,24.241635444989285,-37.138155229887616,36.842832297162566,22.018005017256424,588.623697364058,47.75854905269679,-0.12882939386727946,-0.8305419895612581,-0.25507664772028504
1,WALKING_DOWNSTAIRS,-0.05571222454624348,0.6354740607271208,-1.332994763689607,1.1829606229277536,0.5602921309367801,0.4069311338209074,1.1545250286695636,0.9629582113467946,0.6410483291482453,-0.2692776913206285,2.161077218731104,0.5513683724633358,1.338231477103975,1.0820260963301158,0.1132106107311581,0.6343626120671247,-1.1256559427363286,1.3068344799130838,0.5497438620427921,0.4152325659707473,1.062272242557593,-0.6889378731403579,23.982209694772735,-38.00345164326025,37.26143059821878,21.57638019604253,575.6210172370984,47.15910747542632,-0.06279820309326137,23.971648438310034,-36.63835081072028,38.91681713124208,21.306762127019855,574.6438724642436,47.42071242928691,0.35242633812547763,23.849699663386282,-35.47402353624121,36.741355119776166,21.304482827212013,568.9323783575322,46.86512864699729,0.5607746613661171,0.4533456729928126,0.953175920806587
1,WALKING_DOWNSTAIRS,-0.040492713331923724,0.6490673543639678,-1.2208156424413739,1.1383804697744662,0.5722561626906506,0.42292809033402184,1.1523744773075546,0.9494470593119191,0.6526133391107679,-0.22079624867614567,2.1295918451150597,0.5812065903779695,1.3273538888213567,1.1618440527539413,0.1130763688112892,0.6449512406911614,-1.0604964559452454,1.3517053554494445,0.569578861607506,0.428748368052615,1.0984564200156666,-0.7750032734526862,24.231523826342556,-35.84608314520823,35.92017427124772,21.84725151136768,587.7673770204693,47.82657821198792,-1.0545811185480796,24.21205242438622,-36.62053524487642,37.28475148429826,21.687031465418006,587.3356239368247,47.39368692448237,-0.7599104900724701,24.213072956543165,-36.60637348772069,35.65936422466792,21.84021858632018,586.8503659518043,46.67122850017142,0.5105353667741309,0.956315197172489,0.3725575844382826
1,WALKING_DOWNSTAIRS,-0.08591859308449859,0.6337452684935377,-1.254470835294363,1.1300756298901482,0.5559398331521626,0.4090150699755658,1.1460922800615578,0.9531333655494538,0.6069300587630252,-0.13527664398373473,2.0781577174869645,0.5318271167959816,1.2768273087537179,1.0530555952252807,0.08052998175532494,0.6182021584856098,-1.0634504921666323,1.2634208259926072,0.5361261872005194,0.38865898671778,1.0709608100499666,-0.8678537525156806,24.156786398927075,-35.74035782467109,36.11618985436642,21.82810235346793,584.3034992591438,48.05647320167037,1.2939083110321383,24.39694003509094,-36.28643333045967,37.570587787941186,22.10722943721079,596.8848817931811,48.65600455292322,1.061583558283052,24.401385210750597,-37.29400638880541,36.22189336327748,22.048678726852234,596.5545598546549,50.36778023445665,0.44638438719418017,0.8830527111143318,0.7367788963938413
1,WALKING_DOWNSTAIRS,-0.02435652666497496,0.6613564879730185,-1.3419059759239889,1.1564374753173243,0.5835204536546347,0.43798564457518707,1.1687228205465403,0.9743284844939943,0.6549801667536485,-0.2509458582624685,2.0725359692680176,0.5742116661931371,1.3783150145370011,1.1672672898700467,0.12423307884673546,0.6865154541956383,-1.257664136167267,1.3543694165304383,0.5927704551546317,0.4867373267291828,1.0923704136265942,0.3008797426369031,23.72544572213827,-35.052813763759964,35.229865326804955,21.235920394441344,562.9873033336585,47.64820704573991,-0.4724080831740854,24.0583983129551,-34.83221843577419,36.38557106540805,21.718660686150564,579.029698781849,46.463607825669826,-1.0353953950729229,24.506051039544676,-38.72651874052049,35.798574530886604,21.97119687575876,601.6185811769069,48.643171867769055,0.47373196730076295,0.9338983108304945,0.20710197906621383
1,WALKING_DOWNSTAIRS,-0.05308026040841935,0.6588824454660197,-1.2733047354759774,1.0950517749783857,0.5756975701269498,0.43694359098830804,1.121062209698204,0.9574950037828454,0.6360805350945347,-0.19825266939808975,2.087003677807299,0.5506035048258409,1.3213951293952606,1.125006548943697,0.13254255417594213,0.6601957058664437,-1.1223101400213942,1.3256833997987822,0.580134923697585,0.4534258987119744,1.1960095743050008,0.8365130996720311,23.88569452865904,-36.26126861919281,35.49882041485992,21.47676974580486,571.2261572823354,46.66713009062964,0.6196304414631899,24.00088767167918,-36.66717181421921,36.356165097582554,21.538295149144155,576.4265509125494,48.164033941221234,0.6119077465615826,23.668286465482176,-35.65208947955694,36.54721954443669,21.15155509634962,560.5622153024289,45.9643214126733,0.6860638078285195,-0.09315357022978994,0.5925468500337296
1,WALKING_DOWNSTAIRS,-0.02865031626765792,0.6299992653507852,-1.3574371715202225,1.1989279024076862,0.5507145349775672,0.3977199149647659,1.1270801269153576,0.9546920836650926,0.6596937546003121,-0.19323062465745663,2.1319518766154757,0.582417990819758,1.346632824471453,1.2105301808752817,0.04584694466316765,0.6408225075172473,-1.0277452883770413,1.2118741308053056,0.5639709526295952,0.41275542847564006,1.121545548249221,0.8038637792135075,24.2725252726138,-37.80461117642955,37.62173825141424,21.80381747230841,589.801680085207,48.79825092213849,-0.8632980894783793,24.297879522303774,-35.93082850537022,36.45481693392754,21.875606855988863,591.132232871686,47.91546500375564,1.1565240147541505,24.216819157964732,-37.579430811496216,36.68837863367954,21.93659442071001,587.7918779262707,47.44931497482928,0.5624896864075407,-0.5606599389901166,-0.8809313974182315
1,WALKING_DOWNSTAIRS,-0.024627236108418694,0.6379239264751684,-1.2200372256647518,1.1864432023347258,0.5517312566521422,0.4075534367278359,1.0993137271270825,0.9590950926672144,0.6279866196943367,-0.18441234101485277,2.123732957649587,0.5562299566372848,1.314230591293452,1.1301642997058845,0.09011841772908008,0.6260642587672668,-1.1210810298078555,1.3417599747328368,0.5420370987669798,0.4000777853198001,1.1084507039632205,0.057822442116486905,23.70155049647039,-37.03427301795771,35.333675313959446,21.267527012666108,561.7668393715483,44.6894013344492,0.37098291375192877,23.659025684469732,-34.26522590040617,36.53073371180827,21.191571151883224,559.8871246606943,44.13055019232277,-0.7880801020793593,24.357672730762715,-35.697479215713116,36.162173260887855,21.996701145811414,593.9172911062349,49.28234612674976,0.5798885024102235,-0.8224783031166722,-0.6740483358565126
1,WALKING_DOWNSTAIRS,-0.054459257343060445,0.6077838863163245,-1.3376360725775558,1.0081330179882633,0.5263402314610133,0.37236706317613255,0.9922632825938703,0.9643874820841117,0.6455252746174472,-0.1939450684932054,2.1785108129657447,0.5745355958928907,1.3467460957704638,1.1748032262494992,0.10434213010926868,0.6553385574163835,-1.1055002780953744,1.4702196172081539,0.5639552955254061,0.4403559049523261,1.0936707787807545,-1.0511228449975079,24.423836171540803,-38.01342304374049,38.33527327094037,21.81451420020773,597.6286325695405,49.683210547701435,-0.515526331917262,24.354531260234538,-37.71713994448108,38.911446455119226,21.885764375947446,593.4089603046414,49.50742700507986,-0.25173115561403986,23.872362525081282,-37.456787541867236,35.667567820115714,21.33141104396414,569.9530611036121,46.072081394624846,-0.6807803259015422,-0.4136938310379741,0.8599255664416081
1,WALKING_DOWNSTAIRS,-0.0315607869150285,0.654593976717836,-1.2006090550462032,1.1627546552666823,0.5760903238174165,0.42948935762596663,1.1313056341537726,0.9659508539186916,0.6400545203957388,-0.23097698409848796,2.221181608638473,0.5524072057206706,1.3427308412652685,1.1256545229454544,0.11867434008392128,0.6486910470254753,-1.0709405438857762,1.472608773711349,0.5654210595471207,0.4348836734853616,1.121458011756936,-0.8158822267958046,24.2411433560756,-35.772019771202096,36.89487864594292,21.83602799099141,588.2986950178093,48.38489880631336,0.42553352526575505,23.68227062784328,-34.204643899951705,35.32595486917553,21.30927422574912,561.0310208715337,46.26988432107508,0.42677887316416546,23.961041709809425,-36.86590265071422,36.669932041136306,21.488911701991885,574.3136600258065,47.864220615421075,0.7302275011270384,0.5165795774472066,-0.11213232926432774
1,SITTING,0.0028800663558428505,0.03297553445627945,-0.07170649648545557,0.08917272276243662,0.027039356383538753,0.0010956806548913312,0.048378789119573426,0.03325184491003666,0.029830423968129356,-0.03344049401059954,0.10855556746899438,0.02418219354070156,0.001995539384039477,0.04504636456279913,1.0104499179994368,0.02793908447942726,0.9515995258887849,1.0821069644651526,0.022756327481831012,1.0217896292266169,0.03659164327321218,0.011742890053880198,0.9882613348613196,-1.9130454207141674,1.7433031555545158,0.899338576196838,0.9767983614486949,1.8854858886216916,0.13684961300069637,1.003587041911192,-1.9326175423966578,1.926386586363546,0.8830674709028645,1.0259147672704971,1.814611637820177,0.3126611687441408,0.7647637616672737,-1.4985801800070997,1.557922258365632,0.6551484254932629,0.6826206175999306,1.2718713731711453,-0.18250203844666207,-0.5389274175005353,-0.023071493527658932
1,SITTING,-0.009306456365944071,0.030838992171385048,-0.08477607540364307,0.06367642873215193,0.025631908529902804,0.0010376535682379692,0.049892900175791816,0.05997759736448929,0.02634715080616495,-0.008355258869354204,0.11330669813107977,0.021585606463782936,0.004291484541219592,0.036500248093991695,1.0073965070235822,0.026997438993171446,0.9358502354093267,1.0706603074670782,0.022167164113893398,1.0155765840755038,0.039217318204877394,0.21457417047656463,0.8644436829872595,-1.701889478926815,1.7964375343273522,0.7320745364839504,0.7933049556922834,1.4027967654326068,0.2819028997964783,0.7679092423278816,-1.5274344682163155,1.8285036353646995,0.6426263302134573,0.6691538493662446,1.1887207065653351,0.28834151562746013,0.8125250594894269,-1.5752698516194226,1.721171425506264,0.6825043723461939,0.7433378019326378,1.1986165622154736,0.2837514336840183,-0.4697979764306476,0.021200067688506307
1,SITTING,0.005743538902566463,0.031902643146986716,-0.07025964409054974,0.10246088399072795,0.026662634323092675,0.0010507668788892728,0.049439641236868545,0.03184592820771154,0.02734900381339241,-0.04153888630835443,0.11018496795409166,0.021360060965016185,0.0017621311529956698,0.033431672757363994,1.0032782724280196,0.028546136280879,0.9296307572666689,1.0655595037087178,0.022799611675262114,1.007382173822718,0.037914059959840984,0.011679353269045374,0.9927121249016632,-2.082560385658098,1.667984956975089,0.8819185647714062,0.9856137702195586,1.8603913739342672,-0.08469421885539723,0.9587752598211842,-1.8478483952298346,1.8710908838282316,0.8373624844787251,0.9264231095527051,1.6728323894718824,0.24807139697887765,0.8341280629460509,-1.801552510030493,1.9173636130469531,0.7086589947314437,0.7573090433931831,1.3672317262131959,0.15462028790998203,0.08950252045367196,-0.5086174245369056
1,SITTING,0.014213625172354638,0.027469098492388835,-0.05578473473673961,0.08062979079352106,0.02168213553909082,0.000956578512524752,0.03418939799328458,0.05382545089558436,0.03357886135160375,-0.02245944597652487,0.14498714304548427,0.0278638435758539,0.004024719093783192,0.04999801968129932,0.9950426672347987,0.03187052767327069,0.9266741721558781,1.085055202671856,0.02622294232853869,0.9911256401519152,0.046382202816242946,-0.21287092153827245,0.8875014374277508,-1.9982085077591818,1.8677703580587317,0.7721059529217031,0.8329728306728772,1.477758622832635,0.3607369332383992,0.8005518117056336,-1.3463563384832224,1.81353593729715,0.6885960234379473,0.7710143382274175,1.2883563401861438,0.3325910961982606,0.7922399413415333,-1.3444497149131909,1.91946972501241,0.6688853672883235,0.7382609619271967,1.350377671790758,-0.3857503762972368,0.2179550738389165,-0.5072832033856305
1,SITTING,0.008577916546570172,0.0272995705415036,-0.06927680405836388,0.06185415484055842,0.022156735192657255,0.0008188472040304537,0.03583173128049268,0.05371984257650851,0.024860408215773632,-0.001213390397793515,0.12079842356231213,0.020382687792652697,0.003503861383099762,0.03369503203860508,1.0074568034750635,0.03206527046731853,0.9367509954937544,1.079814810966156,0.026461676171747127,1.0159973924383348,0.04705477959102755,-0.21241290420603703,0.8779462594431532,-2.0837721905298565,1.5570726452661674,0.7529439444023323,0.8159088763434678,1.4861195984548403,0.33874286975359,0.7566875113247347,-1.2413285155404303,1.7047625313010324,0.6399832689304596,0.6873227216037181,1.321358180596032,-0.23233099780247704,0.9157720797681919,-2.3095817452466743,1.736092025925212,0.7830717098310138,0.8926161946228541,1.58959609005663,0.3597527689489429,-0.3212373486357764,0.05895204517839264
1,SITTING,-0.016168064813501852,0.028468269022159674,-0.08098145703621207,0.05450571956028884,0.022853260706346072,0.001071848660931653,0.035820166226970956,0.059681666924674436,0.03171616546147571,-0.01626325077886885,0.13090938128095184,0.025754717097482345,0.004567816518487483,0.04637192926026555,1.0027640738057197,0.03565060798275657,0.9219581279721106,1.0859547351132415,0.029195144901211383,1.006806753564983,0.05078052806675604,0.2703775390856095,0.8444194146641613,-1.7179841318327878,1.7510786983362716,0.7169684179048934,0.7861481615037549,1.2909184004696217,0.07225877093690966,0.9825250166087773,-1.865442640174083,1.8014180023942055,0.8652934631910341,0.970576738239391,1.8459457791225986,-0.2653538239191593,0.779117748186779,-1.611765952867392,1.5867537308926682,0.6660696206500338,0.6774371174081575,1.276447738991997,0.16123444585982993,-0.2524530486083806,-0.6012053798717122
1,SITTING,0.0005737557105305934,0.03511072772352082,-0.0840060166516302,0.08068571349335725,0.02933288280030943,0.0012330923968905797,0.053837049241841864,0.062160966036995925,0.025728018116688574,0.004411509636997844,0.1304787325646688,0.02146774738096842,0.0045259166148652165,0.037562915039991734,1.0107366611496023,0.03199294090705991,0.94013307468619,1.0938222777945352,0.02718856340530783,1.0226121464597284,0.049374901627021295,0.1331459820226287,0.9246859601200503,-1.730617277171461,1.7042999914568746,0.8081937704994314,0.8727719773719097,1.626640848137142,0.14846602896758437,0.9368934899651523,-1.6322787782798969,1.7869389949836418,0.8297360274328645,0.8998115732964865,1.6856096095541417,0.26300768300385985,0.8029131963483553,-1.5070385348982094,1.6394233324301797,0.69570334085049,0.7138426421893914,1.388819571703166,0.4348327861752702,0.5374211798137896,0.6194848084839029
1,SITTING,-0.012091349304632733,0.030731122304156692,-0.09061264553536388,0.05810469120022807,0.025256664101925792,0.0010906026060796795,0.04651879473895503,0.05199748030292528,0.02782905769929683,-0.00947113036172579,0.1478078312911747,0.022224925993362593,0.003478194410283894,0.03741362551918487,0.9846142847592422,0.02792879488649305,0.925737643286054,1.055222992580864,0.022630654258801505,0.970245307335766,0.03626691120943415,-0.2796710869426259,0.8601221223661176,-1.6823358574401623,1.649822741274501,0.7361642796543365,0.8180259822552644,1.4782973465516491,0.1739823256521884,0.9232268466717926,-1.886555815947343,2.072813986778733,0.8133685690729189,0.8826176600548857,1.7063270395563426,-0.21175054716632868,0.8967415405029536,-2.10573685001041,1.8095407049542755,0.773021447089143,0.84898368468885,1.452039796536947,-0.21617724641557537,0.19309621382748202,-0.4653958592363256
1,SITTING,0.009287929513138274,0.02305216286746009,-0.053871442287301355,0.05543603448917184,0.01951129133490958,0.0006176678475089308,0.036948165237202554,0.049142075217166376,0.03597440571930225,-0.017481756204009102,0.13384636977728223,0.030399373155477506,0.0037091014235066037,0.05728511069313685,0.9893378597496121,0.03179219101259217,0.9256126610853102,1.0631675659763307,0.02635762175887556,0.9798001441433241,0.045936760323290304,0.17048594610021567,0.8997787423453127,-1.666747812018723,1.6130902960863562,0.7773944090734279,0.8386672429941981,1.589384032945442,0.2633317234622293,0.8259377068141555,-1.7366949112154315,1.661070342207653,0.6919765799976378,0.7515166921190138,1.3403801175102057,-0.22858291839884332,0.8322664834217635,-1.701363502981244,1.5234949027697764,0.713557408456062,0.7449176500109607,1.3767238992000093,-0.027580308163472036,-0.47621806921670384,-0.15226851427231458
1,SITTING,0.01152713973471186,0.026296095859066306,-0.05707478829604515,0.0684497067851457,0.022013021218238397,0.0008243596078927771,0.038996365454028216,0.03343161911892609,0.026506884818319414,-0.014000650722064426,0.1154727046636764,0.021427822973271803,0.0018202880996845963,0.03540186470919094,0.9998944261963194,0.025726037069454945,0.9495634693089924,1.0745427349200831,0.020550814688415964,1.0004506925217658,0.03306680233959369,0.26020374862540596,0.9086338195104291,-1.710863460554441,1.6212997477389188,0.7751465026974942,0.8933214087568244,1.4295431857204082,-0.2982361795806958,0.7948493165667778,-2.0891631510289326,1.9068252036161493,0.6694773382691086,0.7207302548575629,1.0980875672533106,-0.3196041463224937,0.7766583371839453,-1.7929383607439118,1.4970741298777805,0.6630547248912647,0.705344983063861,1.2567231863349755,-0.16255375776928194,0.30303480989122095,-0.30826269016930236
1,SITTING,-0.01109992547078259,0.027437867906708314,-0.08161109931170693,0.056524054268066976,0.02202770484546532,0.000876044940722902,0.03695849605745003,0.051800605587028335,0.027986448574635003,-0.004202091667760283,0.11294953545665665,0.023205245138717752,0.0034665440430035614,0.042459869084584594,0.9835041634259749,0.028575283120986367,0.9060582957316444,1.068975206160542,0.02183633951454943,0.9680969862816712,0.03384804295944277,0.06374448948317715,0.9360322107952137,-1.7232737888116287,1.6367471442836545,0.8424784981703091,0.8802196595856463,1.8579522775073096,0.2941276021099464,0.820661400030329,-1.6244806150181714,1.8154220363284916,0.703526973775177,0.7599961798226866,1.344123692854756,-0.23835468809297655,0.7685601802405256,-1.69745547295176,1.7544904117507591,0.6535430832199786,0.6474977079872495,1.2955617599154465,-0.5257938074393421,0.2865828681600334,-0.24062992792762775
1,SITTING,0.004772522667979047,0.030742770043841853,-0.06042564861238926,0.0805634206740785,0.02550250987358061,0.000967894882584914,0.043691771722218456,0.05089819089085935,0.033400570558742494,-0.027671229990635555,0.12524779410898312,0.0271694317271712,0.003706223949611893,0.04987335935298981,1.0070753459414732,0.03136912953248642,0.9406015862995235,1.0811461619324627,0.02588796441706702,1.0151847746907636,0.04863901609176735,0.2703456180268432,0.8235652460530289,-2.0191562024013034,1.7666332704909835,0.6992313399609692,0.751346467692702,1.2734583426120205,-0.1973769639120431,0.9291347978364235,-1.798283285640327,1.5781853042529914,0.8135657838839958,0.9022491384336677,1.577696584083528,-0.19672417321710575,0.8900400774892299,-1.9439441522578418,1.5716067010803991,0.762357102338506,0.8308717398649882,1.3828717069978587,0.558269234685429,0.5966553565573259,0.5964378288407186
1,STANDING,0.014909014919917316,0.016239377171882598,-0.02829686531582603,0.062207235469063385,0.013460784628074072,0.00048599609681297884,0.023230375118550847,0.00774384783632512,0.020698470904400433,-0.05816775157020165,0.06563040482357403,0.016415061499979556,0.0004883938770924685,0.028528672634489296,0.9966896892059148,0.01854057468964991,0.9598587584454983,1.04959052481701,0.01545548288838039,0.9937340894792055,0.026959338767708507,0.41483612917559604,0.4761906750459894,-0.6506549991013508,1.2528992542753867,0.38366311847370643,0.3988465730701468,0.6149735950275617,0.48746374037712253,0.3574515246870447,-0.3180652906318512,1.3698295698777163,0.3030150585425604,0.36539249068354773,0.5489215547316284,-0.053823849817898166,0.6063654636615975,-1.3897977595843032,1.3217797769276038,0.5276008457156478,0.3705760823307637,1.0727887398869118,-0.18969262524311423,-0.12390609012056568,-0.3356045432041281
1,STANDING,0.006067182520256407,0.021552785005988853,-0.044188518855043754,0.05647310988276159,0.017424863965802024,0.0005013332452484827,0.028847894419637192,0.01455748022895014,0.021354550051562296,-0.04250641407537739,0.07165615472224757,0.016323556660927014,0.0006679370385209535,0.0247181644074615,1.0065250121232916,0.01779669293900208,0.9449043365140365,1.0484941372020822,0.013957600216272107,1.0134093223093574,0.022481511838213564,-0.27848186785811624,0.5537979475881171,-1.3212413178162554,1.0383300115148595,0.46504365089580957,0.38424431747855614,0.8893571455177848,0.2250355638642902,0.5714598418797884,-1.0448375608480174,1.246337300888772,0.49823941000430266,0.37720735588499177,1.0244199851053157,-0.28407618116630085,0.5708149666070725,-1.1650389853301844,1.364975555861014,0.48794118673515474,0.40652900280866233,0.9424917465564024,0.4729390395376425,-0.193419808571864,-0.2638229862088618
1,STANDING,-0.016597789708063998,0.017465509665095403,-0.055509126362967676,0.023804137358669646,0.013756898670635736,0.0005805306510546562,0.020077632778743706,0.027354572254771753,0.01671295899076811,-0.018403434054251037,0.06473371213223952,0.013541340605978554,0.0010275956214686253,0.026098485429512708,1.0125058102865316,0.020784988416612093,0.9592940725849091,1.062417168581859,0.01676307223912061,1.0256000316074645,0.02770357467729634,0.1778051194838976,0.60320072831924,-1.0746573460200821,1.1878869361392534,0.5355210423535917,0.3954657791595446,1.0147880844277262,-0.45181370305704294,0.4199313458665166,-1.2464843821667813,0.7535031910377322,0.3424453890685589,0.3804779575113818,0.5842619141512693,0.41307575955831916,0.4522352966371662,-0.9132175482022779,1.1573917928748025,0.3738245763718244,0.37514834665918795,0.648302384670613,-0.14104902148642412,0.12672333227597124,0.04361868635232371
1,STANDING,-0.005379922290630956,0.017221306553181773,-0.0484821252775398,0.035148353688812715,0.013990238477371977,0.0003255169632518893,0.024811454168759732,0.002652420957194949,0.017206414485894987,-0.03396124437448601,0.05558954687399908,0.013917158713744153,0.0003030960363945839,0.02376405699147798,1.0039583848368319,0.019800304275842895,0.9576275328865738,1.055680198491484,0.015662856662780354,1.008324490533596,0.024382752707289734,0.15623583122007703,0.5533401227660395,-0.9381408671760576,1.098853001649668,0.482268198529759,0.33059492641976407,1.0027026675050168,0.17864783708994386,0.6148915918348866,-1.355680201139668,1.181024765598189,0.529320697763961,0.4100067194061559,1.019864976893637,0.3250547051239694,0.5605348224512365,-1.1235617161876903,1.1431358654266999,0.46611546087294964,0.41985984850367003,0.8690714577658339,-0.1172190304420779,0.22502235669085602,-0.4496717424183768
1,STANDING,0.0010667537194069478,0.018939264282094047,-0.033892098659351805,0.0585203178384173,0.014871975713863098,0.00035983369504487186,0.025384035193729018,0.02044609665901589,0.019358733744263775,-0.025177461876060413,0.06675955732349112,0.015782969252077207,0.0007928034407711178,0.028146139845238574,1.0165679643582601,0.016834764292075907,0.9623547047089294,1.056746363464301,0.012969473981748667,1.0336938354482665,0.020383624476635553,0.2809303835823285,0.5531706918943078,-0.9838971649757584,1.2833709730172913,0.4573940067535429,0.38491969479054144,0.7816673742098288,-0.1507126748476859,0.5877483768144046,-1.2194472702945096,1.187869766327555,0.5190303414604204,0.36816246480771164,0.9963379972799903,0.49589897505367725,0.3463191846972089,-0.31223994323902116,1.2776323425548504,0.284691050153438,0.3658527711486271,0.5293642143747844,0.42746393672133864,-0.3246643073243115,-0.2680118801281832
1,STANDING,0.0055803016877694605,0.019744015558660795,-0.0436739770489038,0.052367317606540675,0.01664502982597062,0.0004209659173071623,0.03353472828537557,0.009804575718961333,0.021082499146579878,-0.05114091396447721,0.065290821559143,0.016344022537017958,0.0005406014752943874,0.02641535463826912,0.987381939323926,0.019547985717368425,0.93862985237159,1.0436684830725627,0.015542618564800666,0.9753052178486838,0.02726875128508499,-0.2755258944182878,0.5604826296684786,-1.247672165340354,1.123018525737983,0.4762614982011293,0.3900552966550905,0.9228018994987818,0.3765219590963998,0.42565284925858804,-0.7896143237189139,1.2104670254799133,0.34738536508056495,0.32294913376374523,0.5297181102182502,0.10428388375794824,0.6470362992109315,-1.2073154339357008,1.332475169053473,0.5712823525207049,0.4295311009082194,1.2055914759433062,-0.357338082749948,-0.33010314667019774,0.39489449574443336
1,STANDING,-0.01699562504540534,0.01798631705735293,-0.08107711614800461,0.03426926757584662,0.01383609841455246,0.0006123588719716341,0.023945410859038334,0.024583077154215954,0.019821113704774868,-0.023352174139399814,0.06810299043594681,0.016082642783749157,0.0009972042308677488,0.02866753286779674,0.9908700229880767,0.021226810785176478,0.9381568353583631,1.041727777987807,0.01712264365316467,0.9822739799525011,0.02861190009238368,0.060424981720496776,0.6081184818788956,-1.2401092743321986,1.2754536326936468,0.5338649767233812,0.3734592664186151,1.067708543240715,0.44625628490831437,0.3834016572568459,-0.6610288216515634,1.3281399482789742,0.30000164148720165,0.34614150260746657,0.4524879862211667,-0.4154065744688209,0.45144510489315337,-1.2718546476999135,0.6542506797154202,0.37032642569593766,0.3763653048439103,0.6032747835910989,-0.34443697525196404,0.23273078058617305,-0.4382165024143319
1,STANDING,0.0066475835902498216,0.01860338536158563,-0.030587888765113386,0.09191280811345072,0.014976468119450258,0.00039027631450101714,0.02749984662211129,0.01969103720510825,0.0211231087830886,-0.028351204404220988,0.07480780536444923,0.01699487602302078,0.000833922670875152,0.03295348344373272,1.0081566686523984,0.016941576841618948,0.9585645259926183,1.0420598184687375,0.01330389325302487,1.0166668855741823,0.021216451178233675,0.4333481223326753,0.43468304958481174,-0.643836084075546,1.172481487480392,0.3664579116606074,0.3767399487256071,0.6567089173664836,0.18355554493040857,0.5601296942189959,-0.9302185574395669,1.2761131275677597,0.4866320181527253,0.3474379124205652,0.9474381988431935,0.3134450133209585,0.49514811805734676,-0.8759362681517953,1.2197040654155749,0.41057978378468407,0.343419435191508,0.7256102435560914,-0.33135199956866696,0.08560634888623164,-0.04281297272675901
1,STANDING,-0.005289161435925739,0.018065668901431624,-0.05045488310160083,0.053337479036631136,0.014121304535374255,0.0003543436215514377,0.02285228787461846,0.027567373194025732,0.017802707091796183,-0.020914219867466055,0.06500989687103902,0.014695460253880811,0.0010768964446149784,0.026169235827717165,1.0076010861024898,0.016606789774246226,0.9495762225116996,1.0464204028932629,0.012869566278352635,1.0155357341815234,0.020766510051622333,0.004831986808885681,0.6161637043036658,-1.3784842940044661,1.2113271114169022,0.5359079336965723,0.3796810585977366,1.0786562400924797,-0.45104955737100483,0.4140869653698922,-1.1932737730244014,0.7492956213308952,0.3387484575899643,0.3749137180938257,0.5614526654855438,0.4867604664834166,0.35385066809648985,-0.47473428919156235,1.2720916375111129,0.2860291383131337,0.3621460470434855,0.48951475350375695,0.23483064516059507,-0.10395470170036568,0.11633387990422066
1,STANDING,0.015718593501098617,0.01765221936051608,-0.029280366300268205,0.06437823186907812,0.013836344924274935,0.0005586750300045583,0.021116818271083325,0.02496653754113666,0.02037876824612825,-0.03629755794858172,0.07131855349093592,0.01679469815091784,0.0010386221920223914,0.028202383093253854,1.0180302102868797,0.016200002990998476,0.9737676957943011,1.0683608396486182,0.012962671046883763,1.0366479491536569,0.02141704247779308,0.5158781057498509,0.3248992935962604,-0.34210441555048066,1.2243808476350528,0.2698276602690677,0.37168977097140343,0.49152745464515246,-0.06261249886287241,0.6312305817782992,-1.3897521809646527,1.1293479196068021,0.5330342930877785,0.4023723723860232,1.0007184662123485,0.4435230945292854,0.42491672922972556,-0.5088082592337041,1.3234862605144924,0.3410523062867916,0.37726696216012134,0.6115125875315425,-0.40065188718124284,0.13426095917691402,0.036325118021361666
1,STANDING,-0.0029835570337020862,0.01929813368964923,-0.05740039219875423,0.0368889834855597,0.015994562646709738,0.00038131957647692774,0.026080823939078436,0.02524892407278574,0.017581285703972306,-0.02116985840009043,0.06291830844590468,0.014589114807689586,0.0009466097738379999,0.02630773388956051,0.9888957908437943,0.015956417829966006,0.9479626220431996,1.0267408267827136,0.012629195965579348,0.9781694924185378,0.019466451277646346,-0.34890354255147693,0.4415023363094352,-1.1923598207676527,0.6274630317455273,0.3702901169974657,0.3166579949716599,0.6852950478980266,-0.49135994203294564,0.3626664673812196,-1.2949028268903675,0.45295438740906846,0.2963372727079068,0.3729615591973929,0.4856490009115133,-0.11466276721406497,0.5904400402999957,-1.1201756198347592,1.0351913638681465,0.511982218460364,0.3617669913746476,1.0573085811363552,0.27156587036162416,0.23147206006769305,0.29705931255093654
1,STANDING,0.0014170072092421686,0.020374739241899777,-0.04748276743918499,0.05081009089039912,0.016830480150973014,0.0004171379086064549,0.02957621143850002,0.021555976423995482,0.020151648038831557,-0.045862683879865807,0.07632252664929867,0.01623384232480589,0.0008707490382727928,0.029213920647557866,1.0146324984262698,0.01708868725083807,0.9659914304709829,1.0700005216860666,0.01344548634436895,1.0297711300946912,0.023818845514965492,0.510194638507953,0.3518403574156627,-0.37230632395325486,1.7122392883691306,0.28922216891044594,0.3840902062686421,0.5521936640528824,-0.34151516002612003,0.502113415431268,-1.1722591121811512,0.8843295203792365,0.4193575076936959,0.36875048648371955,0.7482499680398316,-0.4501342776637196,0.44958222194990294,-1.4322118683532987,0.7562829971813778,0.3644300670812136,0.4047450422212504,0.6168476763055173,0.4267072789023564,-0.3198747158146252,-0.2623015359940544
1,LAYING,0.9801704766659993,0.019313501926075057,0.9318987111811254,1.0200836169330771,0.016232349700071917,0.9611071746843007,0.02911523612305056,0.011026457516145201,0.014837087855790285,-0.03749006816914461,0.04758821240716385,0.01142937579671199,0.0003417219413957945,0.018397268086760583,0.005866576730131973,0.01776520747187597,-0.02866556756113929,0.051179943900787214,0.014574595276529715,0.0003500193190493237,0.026557785514745386,-0.04833030558381444,0.5347461653066488,-1.0662904657399146,1.0167822703342257,0.45494255385241067,0.28828927974799057,0.858647072027487,0.6171324295152867,0.303621990875526,-0.22010277324579675,1.3518440057907832,0.24643661489269886,0.47303874890265835,0.48516731767662147,0.4969211322381351,0.39453093962830277,-0.4763935444773969,1.34855898301018,0.3187315516843927,0.4025852739888217,0.5789959230216766,0.2742228671510605,-0.3899560581515012,-0.26108985771271703
1,LAYING,0.9892444776192735,0.016387690951711185,0.9482973258542741,1.0249343459350482,0.012931748380987141,0.9788731929149582,0.020213221746075316,0.017207316380655358,0.01916957062608779,-0.025871737022843514,0.06797090277993044,0.01590906760945394,0.0006635641750125379,0.0258741306031941,0.01722706469323234,0.019452448833831244,-0.02645343384503797,0.05806888794419195,0.016107405347720167,0.0006751695235776349,0.029818946877983296,-0.6246794535228299,0.2731920394513337,-1.2626046715587531,0.18365325492452433,0.22068296189586362,0.46485831007316036,0.37074144520647695,0.5622229233593321,0.2992018707322764,-0.23523385603431568,1.2235697181541927,0.24325032942569272,0.4056163750004072,0.4032923175310335,-0.14966023074968912,0.48049678411377306,-1.0416752845155544,0.8709868556645595,0.4121143701480773,0.253275344211728,0.7800603361806696,-0.1115808867460698,0.2009688087293696,-0.3707990802635459
1,LAYING,0.9998986269297853,0.015495424176912931,0.9666795191111881,1.04548475266769,0.01217530645689422,1.0000373723064924,0.019446236513087634,0.007315408454569971,0.018917335606517077,-0.04143927820201588,0.05995076854614671,0.015288538691795618,0.0004113807873067926,0.026972655843750536,0.0031830068803721835,0.016654367797501003,-0.03296784507372308,0.062364268920029796,0.012847071195537976,0.00028749949953493504,0.021238115497955498,-0.5036755082994891,0.3815339381091204,-1.2336784455516283,0.5418175373489227,0.3069225981201005,0.3992571635898028,0.49715253054282216,-0.6458383357334556,0.2691952088434578,-1.378737946877723,0.10828444135815099,0.21379831183143613,0.4895732163672325,0.32923537119559065,-0.061809403894610725,0.5270272904714449,-1.408349213446633,1.0866457949757677,0.4451297376349133,0.2815781673114799,0.8008916039745366,-0.07761046995862023,-0.16316601714427806,0.1877204207922467
1,LAYING,0.9767705713861998,0.01829892767133547,0.9322624983216216,1.0151798194324884,0.014810573937151548,0.954415599880044,0.02405111320556297,0.01878040301109979,0.018237620779270734,-0.02026950803873785,0.0619946548638707,0.01474040989666205,0.0006853143489478137,0.024226573085980342,0.023348817785368,0.01968383049767186,-0.025122987823934916,0.08210816380938551,0.01589451207469153,0.0009326204750353939,0.0265870831279301,-0.5299422609041832,0.39200685489810594,-1.2971260009845642,0.38994969592138506,0.3284296020567526,0.434508174179342,0.5710469063220445,0.5953835570780197,0.2771809617486452,-0.2787650440569174,1.2456595885452824,0.22545055748881399,0.4313108655947796,0.41553221658671535,-0.4767658177601118,0.3655526382742045,-1.4506230839455538,0.48957030754730874,0.2909626262016113,0.3609343763336995,0.497101715250576,-0.3302212532736225,0.4730649020938475,-0.376183332706374
1,LAYING,0.999386152163731,0.016082131576322923,0.9587934909622092,1.037409435482584,0.013163315908361485,0.999031316092666,0.023203515751279435,0.005697886073818888,0.016857427768704844,-0.04391646759666386,0.04805801320033582,0.01338941852320188,0.00031663877668732047,0.02263496989006321,0.006441804632807793,0.018235833794969913,-0.04036447704178456,0.06912592418330063,0.014887839114436436,0.0003740424811250307,0.02545615171117945,-0.03174398688424679,0.5306483782688188,-1.1326044601346763,1.1423099298158272,0.4505605525070474,0.28259538206263457,0.8974417772360517,0.2746233219648333,0.4927968473501805,-0.9991755297563072,1.2511617219685627,0.4112200266972545,0.3182667017252775,0.7506150563768121,0.24538532667734653,0.5164941866765995,-0.9950944516695812,1.0935384902866185,0.4472374102166012,0.32698020341927003,0.886461741050427,0.007152148102784472,0.0819187386274214,-0.02292113526900886
1,LAYING,0.9769455919125986,0.018290580277600884,0.9328102561985814,1.022062147431457,0.014810918346215325,0.9547572348843489,0.02647235865813502,0.013010347423114181,0.016703729606193898,-0.034947235074740804,0.06055555907596442,0.01322605863098456,0.0004482837228269723,0.020218351431831635,0.03928422903763879,0.016756386647552243,-0.003988283839335496,0.0814158809175492,0.013090988919498232,0.00182402714456393,0.018742711937950546,-0.4039162694085956,0.4799956418274505,-1.399538343405223,0.9920412106398315,0.3909863082997663,0.3935441688663033,0.719545302151446,-0.2296261862468474,0.5307628562429269,-1.3550339202218402,1.2302401098982694,0.44621869184339336,0.3344373949774217,0.8331442211508084,-0.5414889375999788,0.3392341578124299,-1.175394784574926,0.47497262417213804,0.2689412450955449,0.4082900833698623,0.4353656032202759,-0.2678356697402059,0.23541272112630285,-0.1401580784588456
1,LAYING,0.9849828659921548,0.01849128336629691,0.9315262816721813,1.02717522854329,0.015050893420395964,0.9705331738586519,0.02365019446622052,0.011296677616823129,0.016384893962547463,-0.035872463842885255,0.06812212087918126,0.01217417592202777,0.00039607967534235704,0.01961847666331733,0.018034903027919373,0.021181918088581303,-0.037311204810389256,0.06981908099165877,0.017026023911909785,0.0007739313811378232,0.02691704895672895,-0.29324675922594823,0.5049118399173756,-1.4100680270103494,0.8583330015733887,0.408949547888921,0.34092962788527087,0.7554262702750585,-0.4344605002237135,0.44996429073183836,-1.4758734344893454,0.5899866084426145,0.37434754310140694,0.3912237891884457,0.6665414263550697,0.5520120678727047,0.317551180578406,-0.28063246490428,1.2328059011215422,0.25590170944013,0.4055560753638391,0.4369026969720377,-0.42038003993486817,0.46406074794781926,-0.28249936890523963
1,LAYING,0.9890765705011665,0.01784591105088149,0.9426018826957516,1.0492284286770008,0.013962980656400437,0.978590938855585,0.022001550995406904,0.019659196796227584,0.018487471900811694,-0.02946938836942517,0.06837358671889351,0.014988154816823094,0.0007282706359561068,0.02574042613148549,0.04129957830023308,0.013001432143903294,0.007274568574480649,0.07292367385837006,0.010193635168437935,0.0018746924055696049,0.017136060160293988,0.1723750253897278,0.5201361513862909,-0.9884679714257627,1.1652751455758124,0.43868368137795083,0.30025476535705176,0.8008873179364638,-0.5769614988002376,0.2912652058223531,-1.193854241391454,0.11505577959625019,0.2357038687872283,0.41771999122055414,0.43206314148113534,-0.3969053498085917,0.44693947016456714,-1.3280984940580227,0.8748500915052622,0.3709252183458599,0.3572887466976645,0.6601614569184533,-0.41238075816576625,0.13344319184047806,-0.25655377555085157
1,LAYING,1.000558853999851,0.016059555168076105,0.9553635638754756,1.0396810678855308,0.012556350520142631,1.0013759296296914,0.019905910985680286,0.04191208471809227,0.014759239768724843,0.007358177296219001,0.0826841967786068,0.01141609041824894,0.001974458003967253,0.01729544576608709,0.04050551555446821,0.0164368082958026,0.004048636523350108,0.08035398318749534,0.012715502491924591,0.0019108654572862313,0.01815281936238638,-0.5302495705685195,0.34289988289593143,-1.1605874425336384,0.21979345471244788,0.28346408235440324,0.39874493677814293,0.47788317812729597,0.49106161999350895,0.43032414351554277,-0.47514200390071765,1.4564902640834,0.3576643144379131,0.4263203831230348,0.6539558254168512,-0.22120589910483707,0.4997273463682456,-1.1566884924754786,1.1623938404387855,0.42110072923483716,0.2986594705070279,0.8052718920906266,-0.06764988126148605,0.10358651210032711,0.09487263532642373
1,LAYING,0.9940841638324796,0.01740356130230278,0.9548526943357073,1.0436620553177458,0.014125881651668847,0.988506208728523,0.024391373855535914,0.026947224908888897,0.016220666944525456,-0.021753368065935003,0.06340284449519595,0.012802961536649799,0.0009892629664154631,0.0196408073417559,0.004449755821736509,0.01505430626122686,-0.03393725044880006,0.046297603417955004,0.01246587344390323,0.00024643246387989217,0.023812063935159056,0.4686193707914672,0.36051839232041993,-0.448019684662004,1.2684427104250682,0.2846797177998842,0.3495776258822909,0.4465191030287063,0.3489904700075367,0.45462917786527907,-0.8861177979628,1.1793842559085903,0.37534728720476807,0.3284820375225409,0.6695757742327415,0.16908350514831394,0.5364580687193448,-1.0078229398539758,1.3334748820619424,0.4546128086212673,0.3163764912073291,0.8742419928668348,-0.1339629149942918,-0.03293079064476447,0.004096710197132903
1,LAYING,0.9984710807119546,0.01613254177153476,0.9587714164686227,1.0383359791611566,0.01263657444710911,0.9972047579221088,0.01937002505255081,0.013549972030824151,0.018174463478806288,-0.03782174455141877,0.0638871710197535,0.014185352850157842,0.0005139128647785803,0.022178449642680106,0.009807076557759259,0.017819994263167847,-0.03045453365490105,0.05754710959106039,0.015003752531311032,0.00041373094614908606,0.03009198976092238,-0.5108597921082845,0.3742456031492277,-1.514395707182493,0.3727660638256707,0.31744947482547686,0.40103749866944893,0.620685758254492,-0.305312910257385,0.5239991029874852,-1.2106583550765044,0.9418632567567249,0.43995946436333777,0.36779103310152317,0.791886655413867,0.3156404812166239,0.5039800256756396,-1.151565754446944,1.1527557913276887,0.4220986446517947,0.35362477966268013,0.7514071978674248,-0.07380833748077376,-0.0897407107446434,-0.2768422699992859
1,LAYING,0.9614456252875621,0.014469250862373686,0.9159393653278343,1.0038287021031302,0.011165495496061637,0.9245870496051097,0.01983368303623756,0.012911274498447138,0.018469960091542285,-0.041414181947541845,0.054579183460644304,0.01479553921839439,0.0005078404349574161,0.02630908625179728,0.0022638685105362826,0.01663330762961369,-0.03009535004451562,0.047706401387506654,0.013373032986665699,0.0002817920233343628,0.021226199658755864,-0.3059592262225549,0.4627570742428409,-1.1368083715333646,0.9285221581561884,0.39740274242164897,0.30775515787249863,0.7050666653975857,-0.21738166891532457,0.491145789407225,-1.1384638995957177,0.8294738809153961,0.423924514426494,0.288478976432858,0.8159868361659122,0.0178125525925126,0.5134046779221924,-0.9060882971100254,1.1073910629538493,0.445492016591833,0.26390165034225105,0.8654801882347096,0.12243616132191068,0.1533852409035201,-0.25228348960911606
2,WALKING,0.0005050364804061059,0.45009400758016366,-0.9146105041497307,0.8182133519890593,0.3950887950950349,0.202584870721419,0.7894060911676437,1.0280916032138419,0.4446350290859601,0.04544566647187798,1.7871273918456627,0.38379473504932315,1.2546726536890804,0.7760637647544549,0.06366193969939524,0.44226374507716715,-0.7001737391836446,0.8933349667277407,0.38560838518379026,0.19965006277597092,0.7597499738172795,-1.3747270431279848,16.788369272346454,-24.94656234490273,25.05830002745039,15.127183391079832,283.73921726777405,32.872364039631165,-0.17715900250313688,17.379472757997483,-26.397655341880398,26.852838739538587,15.681647958441555,302.0774586581445,35.12967998694165,0.3752218497502984,17.063541067371826,-25.581865306603554,26.0311127179599,15.376899517173896,291.3052251944149,33.471089712974745,-0.7340834438956332,0.3380668910643495,-0.6988490518879618
2,WALKING,-0.04300204261182741,0.4345876209216621,-0.8021177965132751,0.8376917595884735,0.3796062945911103,0.1907155759271397,0.751924021615662,0.9664098528954586,0.4366502266000527,0.11191018930162516,1.8621502904473546,0.37488451006059703,1.1246114241632992,0.763316408602309,0.09808312843385349,0.45364610323066684,-0.7818980482588209,0.8901003947456207,0.4038467581094287,0.2154150870597406,0.8334942142004167,-0.6120815855586983,17.11870305090913,-25.515784907723653,26.279656993025668,15.351202216406804,293.42463801258555,33.792416974693644,-1.496473486357301,16.737754551183993,-25.7668749493696,25.546619528461367,14.952762346608374,282.3918603110508,32.28339040708403,-0.4225080529394755,17.03606135028194,-26.166300868735046,25.164129845624217,15.369229840213954,290.4058993853688,33.62127335929668,0.9443170192776422,-0.8468283544833168,-0.8067635845249701
2,WALKING,-0.04701940282702673,0.45046808049963455,-0.8484266210680442,0.9519828204342344,0.3948352437925038,0.20513231579123542,0.803200371497073,0.9784781672615069,0.44709001294962697,0.19019798224290155,1.9100377560132107,0.38978344295788775,1.157309003486735,0.8028991031249367,0.09808811516457559,0.4599342974232605,-0.8443790630590697,0.9764916769521538,0.40110360421501484,0.22116083628276728,0.8138265715374855,0.19676904729255115,17.173677099372338,-26.358428695966417,26.28722735022818,15.448424411988679,294.9739031714783,34.18879573701082,0.7494034762939233,17.053472357346443,-24.519301701582307,26.11283508727433,15.381421751480243,291.3825250130606,34.30496245528967,-1.013555615990797,16.986786593929658,-24.7833794573362,25.216291301944867,15.303725827186511,289.57821377441485,33.47964479285094,0.7737769154290405,0.2229000717081959,-0.3520622803953098
2,WALKING,-0.025104576944952252,0.4592220753714205,-0.8225243084777649,0.8840287157618245,0.4043735982780409,0.2115151542920196,0.8364881278914833,0.9594045106584568,0.43548517637173295,0.13168387912502044,1.900779530508123,0.37994355015257936,1.1101043539113125,0.7665939777042982,0.06190911734362903,0.4472775219708197,-0.723911908014905,0.9965331905642777,0.39261490101247176,0.20388992047062435,0.7856854193577766,-0.9732273191628543,16.89720842361513,-25.842137674064105,25.073435713342434,15.216417252065682,286.462823925855,33.66601268759941,1.6346179180240084,16.632069305953358,-26.89776668701421,25.554208430586534,14.804478824847973,279.297705135961,30.755473179179756,-1.2941025023077495,16.86644666314699,-26.479728511732795,25.407194580823646,15.15864555700071,286.1517243272614,32.0574119925045,0.34697167444316357,0.4091989141555334,0.9668279659879712
2,WALKING,-0.043616974585391,0.4490120808051701,-0.9576379396588751,1.0353713366786077,0.39177318072402567,0.20351428918097125,0.7920599423086112,0.9896271339753707,0.45007814306973093,0.20244543140283255,1.8266844913160993,0.39496509284927195,1.1819321991694034,0.8458083724069311,0.10121269678132519,0.4528616395428451,-0.7666405346750726,0.9899746853096292,0.4013968323337328,0.21532767455918222,0.7712569859505651,1.5217904649253673,16.841952701648403,-26.17026619813639,25.329625937824876,15.018895457823064,285.9672170236997,32.314183253603154,-1.2470495389669596,16.851442246612006,-25.753625878461694,25.65600383427303,15.123192907194621,285.52623834353756,32.20854186394644,1.0416886597861654,17.146154512430986,-24.301748343201787,27.177206694853602,15.446851604446746,295.0757298280846,33.60535469077958,0.00648056662105232,-0.8806387703336568,-0.05783372882279933
2,WALKING,-0.01436438818378598,0.4575392603018726,-0.780708057746549,0.758287140322254,0.40284040503852925,0.20954851036547922,0.8114273550033164,1.0472295621903358,0.4304364408452772,0.2236902787626517,1.9061256484732318,0.3740903588821225,1.2819652855329124,0.7296226289435805,0.07862740731377268,0.4430357034687266,-0.7465189184215119,0.9400311335324915,0.38570941219794175,0.2024629037289154,0.7402221547401999,0.5018945092213585,17.334807192710578,-27.832445151189035,26.784183280766268,15.599793784425097,300.74743850683694,34.77546123833764,-0.7550269753220692,16.99634811111652,-25.11809488478491,25.64046854269373,15.324060504800844,289.4459148477182,33.46513536137826,-1.5963518270488843,16.719481310723403,-26.164849754175215,25.04418594985912,14.953416663242372,282.08939445535145,31.918123754500897,-0.7133908315949169,0.4932632486016472,-0.7902434965454961
2,WALKING,-0.006312198890911797,0.4536055164334841,-0.9971386921584289,0.8357741959489163,0.39810139581953563,0.20579780839372624,0.7581782347222275,1.0473055011588448,0.4323493839795643,0.22912063371381497,1.8020651777238577,0.3790632594438364,1.283774802585088,0.7533670366600086,0.12707651923361502,0.4556704019273553,-0.7176581493811582,0.9417103519397297,0.39585067055253176,0.22378395693316885,0.8062394589655961,1.3911144973614222,16.93722715298815,-25.424236578088355,25.207066051603395,15.041772439383045,288.8048631766882,33.32123274177468,-0.750673513540516,17.153276598267546,-26.028717316604904,25.402558040897212,15.474985579820473,294.79840878060423,35.56295908117914,0.4373364144881868,17.219155485125054,-26.173281661805603,25.271624424640255,15.472950419233454,296.6905787603496,35.031937751436075,-0.23875668253395696,-0.5405243701873655,0.8392208677419529
2,WALKING,-0.00127904546562702,0.47246225885064785,-0.8519463896907034,1.0470561462233434,0.40827006833161106,0.22322222199555972,0.8613798177275604,1.0459381947398878,0.4435105316758274,0.19345214242380765,1.8766726865379664,0.39320101088326725,1.2906882989231103,0.7444774315746441,0.0997921640855507,0.45757688443382527,-0.7304697402225584,0.8800797859228872,0.4042252066560921,0.21933508118104375,0.8338382802729218,-0.9434441083918532,16.943260296968912,-24.883739082614962,24.801458327352982,15.267221195759191,287.9641562765023,33.50179530821734,0.5779037038317729,17.284383163786362,-25.77795887401921,27.147508545580994,15.622834660294917,299.083874043484,34.79238920995906,-0.029490435565020734,17.145603249412563,-24.98830515599562,26.049812900946698,15.440406276581504,293.9725804720564,34.42688202549115,-0.8052708163922168,-0.24108877656798677,0.2748930808093904
2,WALKING,-0.0025025982688723874,0.45877481997026026,-0.8690173112097561,0.9401850520148964,0.4036020076692159,0.21048059843684008,0.8154239233171978,0.9413908826619286,0.44927924765371197,0.17624260015998416,1.8534286852960444,0.3969689659702548,1.0880686363312906,0.7833032634166388,0.056373401686786506,0.4521966894846203,-0.7061744777122958,0.9437790441709298,0.39826411797083894,0.20765980639858983,0.804751661761766,-1.5088840810964073,16.688645219979,-25.810055418006346,26.56232875041972,14.839582741217722,280.7876104485141,32.02001058466037,-0.7513234024998905,17.150657037023,-25.65041321629343,25.30308087052575,15.531105754538547,294.7095236567304,34.426241363663344,1.3049626092597821,16.92464091196476,-27.217797687773913,25.690481824923538,15.092518181418015,288.1463974105176,32.776531718525014,-0.24111886999977405,-0.28513321294756006,0.9635534842358404
2,WALKING,0.005895692611471009,0.4518721937758193,-0.8367501976782192,0.9146266333364683,0.39533949673983587,0.20422323869914052,0.7784658920888283,0.9706914327317333,0.43692226979740356,0.1090446024498436,1.8443930079626454,0.38327498214616335,1.1331429274237004,0.7582489460650159,0.0635325938118411,0.4381742929382784,-0.8182487531838063,0.8887835609941651,0.3837399803477337,0.19603310146842062,0.7362293280110557,0.8746408907410418,16.96767127137654,-25.24934824631724,24.814913088492016,15.27746694294379,288.666865061253,33.969512413627626,-0.7831067407649552,17.0657445313853,-25.32862839889731,25.939073118728963,15.463542698732113,291.85289257793875,32.73864329550966,0.8112590331879123,17.055769804164264,-25.04780024958683,25.69958107518339,15.412279767880749,291.55742483157053,33.19049674278786,0.0637603896548988,0.3136299770341456,0.9295646655757578
2,WALKING,0.040775462299990045,0.442561220402096,-0.7965772326092087,0.826319512970913,0.38923394928860755,0.1975230721295705,0.773995046989955,1.0082832947868763,0.436479035140554,0.15049592523653535,1.8234983609518927,0.38151136842427474,1.2071491506635081,0.776388423044746,0.1142222189465065,0.4515825184956185,-0.6923017471569023,0.9300685481323946,0.4002340899137544,0.21697348631190927,0.8200634282246415,0.7162502439090733,16.973906000047272,-25.612761601731005,25.51120197354835,15.326637482239962,288.62649931034053,34.143342905089,1.3462061230256042,16.86759313827894,-25.064651875352556,25.61350686544697,15.103906731341722,286.3279692041864,32.00048287098646,0.027957327373471785,17.219350592772066,-26.041732457685185,26.052873724372706,15.541931058966158,296.50681644895354,33.58448607141635,0.784378491222207,-0.6927164074613122,-0.2521767611056252
2,WALKING,-0.035004951514454735,0.4420827238848094,-0.809753299187661,0.8657806885712654,0.37664005567420217,0.19666248138794196,0.726470008445197,0.9977645539890433,0.4444044810747605,0.0667927756747432,1.9537213936205073,0.38884822545512454,1.1930294479962815,0.7794478766668089,0.09985192028622827,0.4420786568025148,-0.7281279735621736,0.9254036429236359,0.3873580625325318,0.20540394478516294,0.7957889685121724,0.7036368586373282,17.150558527005806,-25.591886495109282,26.228877171025452,15.463761589149652,294.6367626170846,33.271199571326875,-0.8067611222579558,17.147312134793744,-26.009015484611307,24.946419004966224,15.51998190265021,294.6811769564317,34.08182769433965,1.3055288859392542,16.7689509540011,-26.522859318767217,25.683817877616843,14.990239896357425,282.90212176971613,31.869343125922757,0.6128183820523381,0.007180303456240735,0.7369398353993357
2,WALKING_UPSTAIRS,0.006585545587889368,0.5786276707803587,-1.1314194242460265,1.108453654868995,0.5089662848598056,0.33485335080339335,0.9839916034194268,1.0921888625217435,0.5272648012051278,-0.025014438109018683,2.0714925219716043,0.457448061992188,1.4708846820064232,0.8596252022508948,0.12004091158503442,0.5814993970298249,-0.9403922846376065,1.1439918284729234,0.5172871048699622,0.352551369200216,1.076863667999643,0.0719147389726161,20.79783230600922,-31.52540960735382,32.56328202784658,18.58982786905228,432.5550003585623,39.46084639457823,0.9553613219315559,21.549651361803825,-31.660601526688634,32.14337131680561,19.37319354807711,465.3001890707362,42.833871428301116,0.760741149513497,21.085031473499217,-31.399284354250348,30.747600523689403,18.933365532577724,445.1572793350157,42.156131451279,0.06383411093749933,-0.8491197063987543,-0.07653668277109756
2,WALKING_UPSTAIRS,0.05864484552065174,0.582421756934671,-0.9283088016155912,1.088461577435883,0.5112401184126456,0.3426543208570101,1.0225744366468232,1.0595623981741467,0.5675917710423665,0.0224229898274933,2.128503364579638,0.5072448327817497,1.4448328941795583,1.0139734242219065,0.15898469974393026,0.5808291802837303,-0.797814526728065,1.2254681646133392,0.5073297391686276,0.36263867142173783,1.0587388716982877,-0.09283886625312765,20.94898465031747,-31.43487308685031,31.44993826723756,18.589062525423802,438.8685769343241,41.316346339883005,0.7951370399427022,21.52409021048598,-33.126070901125765,31.47902654072981,19.42398291337657,463.9187023014273,42.533409777577134,0.17430644401598094,20.717675121032855,-30.06809492544313,31.66624565056012,18.47811670396515,429.25244515708914,41.14488315326463,0.1260948751986058,0.9756121517987609,0.060640430396281066
2,WALKING_UPSTAIRS,0.06222908895291626,0.575228431623174,-0.9485183064458902,1.2139984805053001,0.5079816963739447,0.33476020805956663,1.0634639354875457,1.097980259259903,0.5729181149368073,0.02243213668225663,2.180889363630646,0.5058883441211399,1.533795816147189,1.0103053796854913,0.15879685415639136,0.5708402082661458,-0.8370391329726629,1.1843971712290062,0.503331582528497,0.35107498426330297,0.9920889744033786,0.2873939662754186,21.042528379622826,-32.12733126645077,32.30023665334421,18.83155753048012,442.87059589908347,41.975249706797555,-0.6443435076774462,21.123539346850134,-31.721600058979188,32.896129961440145,18.8934220576935,446.6190930938118,40.96962321689613,-0.6045673591901035,21.19090859041499,-32.81484351634474,30.75159478912434,19.01382456901532,449.42010857912186,41.940872975152296,0.8987683573215999,0.9509266471216451,0.7985535366038589
2,WALKING_UPSTAIRS,0.03763506869945156,0.5784652337231039,-0.9739948739507663,1.133728396060045,0.5062473456345306,0.33603842502233766,1.0155705234649304,1.076955355098268,0.5976656316695672,-0.036746003494656884,2.197671257619444,0.5220527087385852,1.5170370441538195,1.050750527211508,0.17027522399250622,0.5770744130720749,-0.8849398445411943,1.2091535433519949,0.5076539532984461,0.3620085301281778,1.0089325492407322,0.5219919353253059,20.669010738184404,-32.9221755754243,32.52939975073775,18.537096422989343,427.48048047572695,40.179560128018096,0.9336967770534883,21.294199303921676,-32.34184481425821,30.93536091734291,19.17897885659157,454.31471366661856,42.27754967330962,0.2558776925222799,21.172956554967364,-33.03107858853895,32.71978087396867,18.911301238015817,448.359562672066,41.14147122024299,-0.5236101594907637,-0.2325295243271037,0.9032403389608212
2,WALKING_UPSTAIRS,0.05974358948894974,0.5671387266975684,-1.053605762522843,1.0403673969983578,0.4882715523134883,0.32521563180516333,0.986671805530518,1.1185341488388587,0.554202609546587,0.03409537665141857,2.0621513158706417,0.4842062560318724,1.5582591745469165,0.9903286560586928,0.1467214646087194,0.5717022591124191,-1.0701335630988797,1.1395706992999275,0.503527977430528,0.34837066125117117,1.0171932964637738,-0.6786652998987,21.663388714963748,-31.53097627962354,34.15380611563271,19.469257507240727,469.76299720490533,42.26198712386379,0.11400460583240785,20.877526193038033,-32.41191017043157,32.66055561507073,18.62489444368473,435.88409699114015,40.86871164860534,-0.5387336205375934,20.892334751754976,-32.1413413088422,31.2910963135383,18.768242254197382,436.77988529328616,40.270638019326654,-0.8534017579013065,0.5934555022597923,-0.5991416988182883
2,WALKING_UPSTAIRS,0.08956795034106318,0.5794857513329393,-1.0770122832248934,1.1785932428097587,0.5034756790122871,0.3438261537262004,1.0066349877398557,1.0535168449929275,0.5773291597991795,-0.10054936125554176,2.076263545436497,0.5042973496334315,1.4432067014382786,1.034895741004701,0.17124291606322561,0.5800642575208259,-0.9512097698937542,1.1601101237290967,0.5077606219435138,0.36579867915502395,0.971426184234457,-0.868726481639245,21.406970413507185,-32.10475652040689,31.637301322620488,19.327832561803064,459.01306798467334,42.048939787549145,-0.5571284074601928,21.15222969286134,-30.99488450140838,31.17801308155334,19.10382460077178,447.72721304196403,42.21105546478934,-0.5933085359017982,20.87982803790962,-31.427409784799764,33.09864706665223,18.65229232544627,436.3192339114505,41.79966936740587,0.8353979123481304,-0.8162753752528182,-0.610381017127787
2,WALKING_UPSTAIRS,0.0722605255579358,0.5665940039071755,-0.9598321923263922,1.068624115731729,0.5004134593757537,0.32625034881747345,1.0303061515273726,1.0493550632649007,0.5427275624295509,0.03924244107318539,2.0527711070080836,0.47086190231043973,1.3956992558204062,0.9293883708804898,0.10311986649467686,0.5526831092837943,-0.8944117836299499,1.13367207420078,0.47971972827080817,0.31609232615348254,0.8884262987829792,0.0757238634574343,20.94477797732376,-33.04394346091719,32.28722219397932,18.683426102534636,438.6894586228832,40.36312273329589,-0.9418383327618229,21.402192370880105,-32.19221855247238,34.33546916940656,19.35181290993217,458.9408977252181,43.70797785363432,0.28884312876011164,21.07805449793605,-32.6536894674843,32.952759509120874,18.894502290771143,444.3678117709941,40.79253452319887,-0.7628928358810276,0.06205616961083391,0.1480344599175954
2,WALKING_UPSTAIRS,0.06762538905418182,0.573463184360965,-1.0520113139980727,1.1821691134936088,0.4929149466741485,0.3334332170621475,0.9328896252082276,1.0834439329993504,0.5720201530825668,0.06253260160654182,2.1416079051786623,0.4996879482971408,1.5010578114857038,1.0417757488707713,0.11066141347797465,0.5816321637762836,-0.9536647377326185,1.1802758892266891,0.5070091811556072,0.35054192237202486,1.0452576393120512,-1.1115878394219432,21.408889754720658,-32.28826372115387,31.4746801208102,19.350798664319115,459.5761880545339,45.07440371876514,-0.8653664896232118,21.282814897158126,-31.935981910349984,33.43359176459039,19.126060769885513,453.7070691080587,42.53905415443205,-0.43634763021136513,21.136016753748937,-32.017608567978655,31.592337324528604,19.042312979310267,446.9216034691469,42.06582447583408,-0.8008261637888611,-0.04173310603261192,0.3883938866527684
2,WALKING_UPSTAIRS,0.006198353579336513,0.5707184172505633,-1.020374645021945,1.1019347052048503,0.4972014480013706,0.32575793137608244,0.9837949669973414,1.0741721461434195,0.5520992462507961,-0.05346057483617622,2.180724508097851,0.4867451039268474,1.458659377261057,0.9380027226820622,0.17638381304274525,0.5836295938591358,-0.8222898711861056,1.2260373201535966,0.5088564968751077,0.37173475233167796,1.0578546950699712,-0.9181148515214186,21.303672274609223,-32.46982568141007,30.99372759350593,19.2151272761086,454.6893872645378,42.51130087659635,-0.10034024883768483,20.936468694938675,-30.508597359387576,32.241425932834915,18.700382326664872,438.3457895796839,40.08860571463062,0.23463435296779278,20.6923574625941,-31.385050364002883,30.4855461427158,18.557063780271378,428.2287106393663,40.09074227521174,0.25503855303735634,0.5554901107605017,0.9109967319431629
2,WALKING_UPSTAIRS,0.02774491245539637,0.5784684812832359,-1.019199943187537,1.1327100955316345,0.5092039192835072,0.335395564005291,1.035119383321924,1.0192550397012745,0.5762533794103724,-0.030642463013451943,2.15857391469686,0.5031468437840938,1.370948793238321,0.9738283477727655,0.14923830476244032,0.5700985428695624,-0.8355201566224594,1.2244284106645975,0.5003096768507118,0.3472844201903653,1.026552206382856,-0.19718425270838202,21.06949663099249,-33.32202057104398,32.8045032565812,18.7821415899857,443.96256991292,39.826230458613814,0.40859297399138517,21.10042056332771,-33.45480850462715,32.866564150894135,18.840604014191427,445.394696167698,40.606407952729256,0.747027413185913,21.39693848819378,-31.603666868203835,31.559843807925954,19.34778770084884,458.3870266235995,41.844939487647224,-0.5878054592514538,-0.2166232374555548,0.8583505104780947
2,WALKING_UPSTAIRS,0.06875428981877077,0.5673606000930943,-1.1025825384992995,1.1442572997491265,0.4933595008703965,0.32662520290647956,0.957989493367946,1.0021846923941449,0.5378101727852752,0.050309257835045904,2.0018120269136617,0.4728701368231088,1.293613939620474,0.912148557200464,0.11149201728719665,0.5848664635648095,-1.0175633201669165,1.2530936527170229,0.5087330168506148,0.3544992501215751,1.0557561933253017,-0.043934477988026965,21.088906833927826,-32.90982701215897,32.17114628177359,18.715477791621034,444.7439216884439,41.48312160176425,0.8979293795085705,21.77179201296748,-33.27347823759476,32.8775947455962,19.646564385797433,474.8172046264992,44.78988193877211,0.9014222307454232,21.251283148741813,-31.272961096099557,31.771959212008117,19.141140836363267,452.42959750607986,43.52219647914782,-0.6037068086566556,0.47078851495478735,0.295946235918871
2,WALKING_UPSTAIRS,0.037319516896159186,0.5731392066573237,-1.0346336598067518,1.0579194862279828,0.5059357894892198,0.3298812965491491,0.9833916976907684,1.0269155166284119,0.5376286383961137,-0.03945382430257374,2.0079429908786723,0.4672565178004506,1.3436000311158571,0.9048439287893779,0.16596577774586802,0.563576861704145,-0.8524876118914247,1.1886827764989416,0.4955181215027695,0.34516351843108384,1.0033671426678312,-0.6742186197791085,21.43816352061913,-32.18583983328912,33.49127627321344,19.369678791712637,460.04942588406175,41.382786192459584,0.43719952583296173,21.106056657397797,-29.979523422209002,32.90098258494567,18.893913597903065,445.65677105067437,42.00316416608595,-0.5067579080897564,21.147093172743176,-32.76919966219575,31.799200943993487,19.013184549104132,447.4563532340925,41.328812554816,-0.7738086121082123,-0.2875684785058293,0.4161338667703263
2,WALKING_DOWNSTAIRS,-0.06016493587391622,0.6393615194241918,-1.389997686673941,1.206284194245459,0.5586386136948556,0.4124029720291237,1.1193473957081277,0.9532399601964041,0.6362645193378599,-0.26309082833131014,2.192794282368249,0.5508028696981957,1.31349896028348,1.0709116953320805,0.06943842809733998,0.6243322970075893,-1.1271090272463544,1.3292274880400785,0.5475934874522158,0.3946125123834021,1.0849062786552377,-0.38731630355162616,24.010010681767824,-36.8938253070742,36.08058420542808,21.597313040958344,576.6306268576019,48.058415848436226,0.8576600592704235,24.032957632882514,-38.189970783735475,35.43552075564689,21.645302187441423,578.3186333611937,46.44104005012106,0.9870359012988952,24.25846827303929,-35.63227321056818,37.07583704059736,21.87225217525007,589.4475228245069,48.811896903968375,0.8814380398286719,0.07615519450074348,-0.28128739299380345
2,WALKING_DOWNSTAIRS,-0.05068190942319827,0.621570213299757,-1.2916227650920535,1.1297963816730778,0.540666318101575,0.38891818600428674,1.0956396249808678,0.9539820867106164,0.6226548262269758,-0.2959691158393774,2.20220299426035,0.5394374275248534,1.2977808543884874,1.1246677066371231,0.12722135692154657,0.645761218417395,-1.031710020673629,1.3664269875532482,0.5711935171281303,0.4331928248688781,1.094883359885404,-0.9624701562506991,24.52334618182045,-39.3349042368479,38.13581161993187,22.09488211105672,602.320856755081,48.10830335754138,-0.6082300769087575,23.96415851421982,-36.594850945290766,35.503804824195214,21.538821984284358,574.6508371211107,48.12780096931503,-1.1795665199784415,24.473571286014625,-36.707474948227635,35.964804199536665,22.06559825933268,600.3470686666935,47.527569154514694,-0.45153864664724835,-0.7514573214824202,-0.15904369279731967
2,WALKING_DOWNSTAIRS,-0.04015166166694858,0.6534067979996832,-1.2473070688953731,1.256694323995738,0.5710565398585072,0.4285525996068159,1.1693194082636749,0.9645085165838412,0.6090616963037666,-0.2684498439663539,2.1613756355003444,0.5309071431365753,1.3012328284671832,1.0342006832640336,0.11989761743940149,0.6397217975598317,-1.1941697613295208,1.3471881477139522,0.5526456840880785,0.42361941694082744,1.0086189605176976,0.1290631501548293,23.87956711847471,-35.73530155296573,37.32438709386348,21.453980705810505,570.2503830624667,46.70862409780372,-0.9059959118914485,23.928475172462846,-36.97041919911804,34.394218871743234,21.693176253579995,573.3927526715348,48.94177752825372,-0.901744628645236,24.360921274414686,-36.241205402892916,35.807227476262334,21.90800994771142,594.2676287135206,50.634277612167594,-0.31791682932487814,0.5692581142002775,-0.7690316639046006
2,WALKING_DOWNSTAIRS,-0.09571955877801006,0.6202692086181865,-1.194074899453677,1.1285676988182987,0.5450805350357188,0.3938961250924883,1.1016213462055833,0.9477278128567646,0.624575518013664,-0.4549025713268867,2.218625722857437,0.540729608429515,1.2882825849643031,1.0624904805746676,0.08082847592893448,0.6522198873056307,-1.1697566897419223,1.235011386687852,0.5737805218085653,0.431924023917964,1.163850393458609,-0.442615781348385,24.18117584899038,-35.95409769992534,37.134364127050645,21.704608080615802,584.9251741696945,47.55416733156721,0.6058243916773645,23.889025732596494,-36.870190188594805,35.73083562212213,21.434822965897503,571.0525736462087,45.214403876630605,-0.2845959525785425,23.77428519635336,-36.68007207116,37.13489248015612,21.236283819050765,565.2976314537707,45.228903686174995,0.08169934176828005,0.6080352774007131,-0.6211412900426031
2,WALKING_DOWNSTAIRS,-0.06706325682739053,0.6358435514439905,-1.0691948325266718,1.1997233403299428,0.5515576835207961,0.4087945023292032,1.1106191186684695,0.9661508079340115,0.6163926484509011,-0.1955866745870522,2.1540462639034454,0.5375416185826559,1.3133872807358593,1.0479655183720213,0.08753142312563057,0.624940024202369,-1.1377903741868851,1.2793575143994327,0.5460510036006894,0.39821178388445577,1.0577527689519126,-1.0310787388891458,24.59761057260523,-35.98080943446425,35.93387596172323,22.172125612527346,606.1055692473299,49.025258715357374,-0.5509766248230024,23.73933282254153,-37.13356976833107,37.35239775376916,21.155661202349783,563.859498100499,46.43440607778625,-1.0701866807735185,24.09461933211204,-36.900994050843984,36.1556970233156,21.63422332081557,581.6959802910922,47.88092714696239,-0.23030729752519805,0.02188180504725259,-0.7914329049440308
2,WALKING_DOWNSTAIRS,-0.09997582836710533,0.6439687435205895,-1.2535425839537404,1.1799514221642238,0.5662243282198647,0.4246909088891757,1.0847681697616818,0.9551705225264924,0.6617526569515326,-0.3066507041891454,2.10388569912949,0.5819331594726496,1.3502673060859451,1.1974660772381043,0.06375845956898706,0.642545122031758,-0.973610805638947,1.2831155597228197,0.5683879701553749,0.4169293750134169,1.1430708118146975,0.4789819756467543,23.988014024844027,-36.45448679999979,35.684628078057095,21.617145779347148,575.6542405891084,45.75237983341708,-0.7538745009739561,24.22733247089059,-36.112438520726485,36.929547718431024,21.80534043771987,587.5319654182883,47.746461385604796,-0.828280752439752,24.331288897770406,-37.74167488278423,35.495056950169605,21.973187133989654,592.6976684316276,48.954105667568115,-0.8003680526333224,0.7584066543221017,-0.4319624407456699
2,WALKING_DOWNSTAIRS,-0.08323370853472814,0.6444658997177619,-1.3280832796838387,1.192452370352035,0.563545359989043,0.4222641461354684,1.1699963855354198,0.9606791228475582,0.6024084300969892,-0.1895107947750062,2.3243390426151724,0.518905424953185,1.285800293727073,1.0272977199612892,0.09571814950970706,0.6456326398083145,-1.2225092845862235,1.3536905491425792,0.5667073112930302,0.4260034697314154,1.113785950528809,0.8838434666935817,24.221041159273874,-35.94435155909779,38.04550160811819,21.873463479100128,587.4400141128559,47.30179969807219,-1.106222564784417,24.172516751290686,-37.067866801652194,35.40113192636934,21.79084402437801,585.5342944542671,48.98984543797859,-0.4038449989027908,23.71433265514349,-37.026692566394416,36.64320037123633,21.21115278124031,562.5326640619436,46.059864499942414,0.6714969718226574,0.08436891008058188,0.6070327926354695
2,WALKING_DOWNSTAIRS,-0.06292102947067033,0.6180787168968986,-1.2375640849777678,1.0387843469612639,0.5530996204307631,0.3859803562305655,1.1181105508037064,0.9653819555179821,0.6613519978547153,-0.19502909503231972,2.1881292263198278,0.582135203092129,1.3693487851061465,1.1849348724408593,0.0802655678898079,0.6123828667196533,-1.1324208453752083,1.3399349349639984,0.5392988908444176,0.38145533684045396,1.106642474579614,1.1208558187034368,24.28435623992362,-35.23595953726305,36.225392076383564,21.83423309184176,590.9862757538388,46.94596045802947,0.06534598887252119,23.612390637519113,-37.22335263560836,38.213705706115505,21.113039453195945,557.5492617170619,48.75568501211494,0.6747597709539388,24.282052369852902,-38.23969012787152,35.1415326580748,21.790083705679486,590.0733680407768,48.42791329719514,-0.8002121894290427,0.11611893570255212,-0.5147088661972524
2,WALKING_DOWNSTAIRS,-0.07536369735322399,0.606758287660099,-1.1906156689774527,1.1461001632372079,0.5280581741520955,0.3738353065229637,1.0876909939702324,0.9410965901286739,0.6299446150631164,-0.20299654173108161,2.140947807166865,0.5477498296204538,1.2824930099988352,1.0556499187261792,0.11999558292271623,0.6563874606537945,-1.0451083128325156,1.3705959270733385,0.574699459341707,0.4452434384244992,1.140115000472138,0.5095761834231614,23.8022138780405,-35.47673858756022,36.35406185018909,21.428563844716038,566.8050533826959,46.03774226315553,-0.24914961107314534,23.754706231324803,-35.752991894816205,36.494368311709295,21.276743851196983,564.3481436652394,44.74272658538027,0.7440804753102133,24.200748679983946,-35.78467569753129,35.28637711878271,21.860337175542192,586.2298924254825,48.453949425274494,0.9066722556995273,-0.37306743658429437,-0.14121728062049244
2,WALKING_DOWNSTAIRS,-0.03882856953511797,0.6450371273074592,-1.179292668750165,1.0852965094922187,0.5656547795311336,0.4175805534172029,1.1292792758102836,0.9003623030183981,0.6417218523909611,-0.18941121419365342,2.1801888431073055,0.5522282116890828,1.2224592125326803,0.9843730923332887,0.1276977546194758,0.6528262393365922,-1.1088219417395633,1.450729821065549,0.5726821408141108,0.4424888153012134,1.1151444169623472,-0.49129876506080095,24.212901566822953,-37.04886973136316,37.0425817436945,21.71851234967778,586.5059767612076,48.70624414917722,0.898129319570099,24.077726968324203,-35.77675074025889,34.80568837836572,21.6483206236442,580.5435722358382,49.57549310296989,-0.9518030152719512,24.22387702106846,-37.39649826057166,35.16328618146962,21.834704291223726,587.7021469117294,46.703267285318866,-0.8330788099552261,0.8744094588771182,-0.7852571827612992
2,WALKING_DOWNSTAIRS,-0.04651379565814996,0.6226376363401616,-1.3452371827011287,1.0493328916625664,0.547189913956516,0.3898411593737915,1.102789472688949,0.9826050019755702,0.6153317218591186,-0.3834090738779548,2.3231922816500843,0.5300451328213215,1.3441457178335179,0.9974400712688913,0.10744297322375085,0.6225432225278363,-1.0027593646348798,1.2423061504666553,0.5454345314495778,0.39910405641050284,1.108238453659049,-0.46731252790549477,23.884542556893095,-35.84574393160559,36.28331868896164,21.353169615294828,570.6897541507749,46.5504875665533,-0.6950325063135874,23.55910628908487,-36.01325324048004,34.74395577892106,21.219651637344345,555.5145593252307,47.473444570488674,0.6544955449101719,24.010419550256966,-36.812315708176335,37.06763390375771,21.701843773176606,576.9286113976691,47.28391754348173,-0.3091009146654111,0.49242987053644854,-0.7977806911127523
2,WALKING_DOWNSTAIRS,-0.09520121100181708,0.6381276662440903,-1.3162680452998043,1.2041166887132642,0.5568869252020114,0.41627018900234164,1.0058343097411084,0.9546697006139563,0.6384652910239186,-0.22538885800583885,2.080582023430337,0.5536476707490073,1.3190321651125982,1.1199269189125802,0.1140806992294674,0.6491179885415067,-1.0963587349691584,1.2611088886042796,0.5640844178460838,0.4343685689848559,1.1260624983335636,-0.6567069651211602,24.047308859678562,-35.54822669899053,36.45837720696311,21.738643838488308,578.7043274308139,46.62846913821265,0.6621655895825462,24.16213100658033,-37.22275208314271,37.24215736445695,21.652408072392717,584.2470380471779,47.385530096296534,0.9115045867370946,23.96345231038429,-37.68133246166908,36.005658980660996,21.640364745095432,575.0778872437048,47.47002475420764,0.912569134578926,-0.5123897280390178,-0.2979208034228773
2,SITTING,-0.0043656252123745465,0.03154955705996355,-0.06556077893026632,0.07014611820693246,0.02615775314526423,0.0010144332341748157,0.04956955360456996,0.03730972547688227,0.02845197202907422,-0.02310307831938532,0.12113505924135762,0.022988631500681977,0.00220153032750354,0.03853017285072541,1.0089570628066034,0.03083171580711907,0.9324169140659092,1.0697760130944811,0.025688668173603213,1.0189449492869393,0.044840806837736724,0.26736458031926424,0.7715256669936514,-1.4358914111229475,1.6538015442498581,0.6438380942836288,0.666735673639295,1.1695132469202287,0.21947466736725962,0.8641943002872619,-1.5566195469613306,1.883969188832624,0.7411300356319087,0.7950009182649593,1.5437648846429872,-0.3307138055818587,0.7645905075633119,-1.8532325875926003,1.4030086287928696,0.6744205149335363,0.6939702654583584,1.3017286588291186,-0.09005434039379087,-0.5367281707745613,0.15444549820186607
2,SITTING,-0.01157108175684234,0.028415069139964385,-0.06561041434997045,0.06261165876317251,0.022775745875126457,0.0009413060872524859,0.03671301570186056,0.05335871019149607,0.02385808686772286,-0.00815284677964533,0.11131905297427719,0.019470954968558954,0.0034163602622878783,0.032943105901235954,1.0120143638087487,0.027315594508722677,0.9435522984953443,1.0810592675843145,0.022574379541131992,1.0249192142585914,0.04211159762377936,0.18962020531154322,0.9060219930343872,-2.2428025768184066,1.7855143407161722,0.7667585416445013,0.8568316741243951,1.5159345713475179,-0.3113603776857863,0.7913329259266701,-1.82328687055278,1.6395952735757802,0.6683811283523713,0.7231530844483003,1.27143730975835,-0.11051732829816746,0.9799190539416551,-1.653716092902597,1.647035918000649,0.8818698464872436,0.9724554321320733,1.9009872101706724,-0.42131668510918974,0.14864501460659507,-0.16082623435615576
2,SITTING,-0.003282147935171241,0.03223386149464597,-0.07569530653964215,0.08075230200584249,0.026966347417865903,0.0010497943219243693,0.0464246417094939,0.047333051667684506,0.0267303654528989,-0.03401576989997724,0.11267942114654556,0.021123886480017444,0.0029549302174212222,0.033931602664874605,0.9848478907356732,0.025605046482086807,0.929742145642276,1.072795609609992,0.020565563302139687,0.9705809862918544,0.03421410883633402,-0.2776128980783605,0.8789479697981062,-1.8543004151802198,1.8533116971918062,0.7491553422955259,0.8496184547916787,1.5039018263019879,-0.2417294932679999,0.8827265447865049,-1.6680461407344116,1.7614438954983522,0.7491977055468262,0.8376393007863255,1.263597709007365,-0.02219167215417297,1.0115021907782984,-1.8366679267117885,1.7126282747682233,0.9224913327608847,1.0236291522622953,1.9329389049014034,-0.4577125911589474,0.1498143961720667,-0.183613490634194
2,SITTING,-0.00730555695436734,0.03311352333230601,-0.07770006000371582,0.07490741719413413,0.027856705502812606,0.0011498765898926794,0.04891690319638334,0.03949935381249452,0.02888546996136432,-0.04598040926974352,0.11254364383286794,0.02423567122507879,0.002394569326493506,0.04878521583273021,1.0039639795139403,0.0331759565532167,0.9208306286303638,1.0821909669660683,0.02811274766904827,1.0090443162546885,0.05394867272752646,0.31645027719705154,0.7620860417526331,-1.3130596625969075,1.798082921115841,0.6449975027825965,0.6809159129722868,1.177738970621883,0.2629894446342631,0.7900178847658968,-1.3638888288600355,1.8319994876213794,0.6656512827532499,0.69329170623902,1.1888454137762139,0.054077646445795644,1.0074684418604734,-2.096924286937965,1.8522500440492942,0.9026038656126681,1.0179170531898865,1.9278576928417814,0.537781378800589,-0.5152890315994678,-0.3229279558042003
2,SITTING,0.0037322738930844306,0.032133743953820404,-0.08047935679905958,0.07969227078535718,0.027029708883776947,0.0010465073689026887,0.04625222741238366,0.05607949299204865,0.027361197541857278,-0.00836911197476264,0.14858300171563538,0.021752529386418064,0.003893544665169771,0.03441047921265432,1.0013276533611064,0.02694186790695095,0.9140322233461519,1.0531802261641685,0.022170536644516382,1.003382933631976,0.040113573999955965,-0.16542124538728736,0.959399391075933,-1.7153662464054469,1.7207559424242769,0.8381178825713713,0.9478113800223522,1.687747857526373,-0.3402717227164254,0.786251419260712,-1.837631666641435,1.374827574671038,0.6588061743142183,0.7339761395698877,1.177552949723238,-0.10265081263511192,0.969815175803608,-1.7054361048839723,1.7241628360072672,0.8508120090144974,0.951078664553632,1.6867274471691824,-0.06525793420650543,0.19923208500307896,0.5045984797266271
2,SITTING,-0.010553969033513574,0.03057560246287134,-0.06703777785989853,0.05657502711326098,0.025341378929395923,0.0010462537283279073,0.04337923479309613,0.059391519665227994,0.02674237731076387,-0.0058240399941746485,0.13850642912818564,0.021273350803970036,0.004242507352376423,0.03558646873321485,0.9911119596280666,0.03283497530776971,0.9201752649787656,1.0713757243370696,0.026890802628560986,0.9833810521212485,0.04536455653739169,-0.1605164683036246,1.019416369118543,-1.8785251629360356,2.023212213566688,0.8944491101856091,1.0649752702235022,1.944178159887733,-0.10883177268264377,0.9413966935608413,-1.716146785183448,1.8438605162763984,0.8633864360808319,0.898072089392531,1.7851869683010437,0.21756653679958143,0.8536141606936345,-1.7330390086299978,1.8399022601099488,0.7301925989597264,0.7759923332716616,1.464126122838803,0.015574765856775951,-0.1270628536623458,-0.35823786406084684
2,SITTING,0.008680724211308683,0.024742964901555566,-0.051754275998101215,0.07484976791900017,0.02042697071609073,0.0006875692849524113,0.03578280923171691,0.03735282880448834,0.030184774695636254,-0.024524126017200658,0.12271022357013378,0.0243383060643209,0.0023063544431237365,0.04577306396342827,0.9988002292248626,0.0292024566632414,0.9190802574902652,1.065725626250089,0.023068587795983534,0.9984546813748065,0.03763231151345803,0.27356580967451305,0.7995425868108069,-1.4404106455226091,1.67095889886067,0.6751922021599415,0.7141066003469887,1.2493705810633746,0.3185422968547797,0.786826967312904,-1.5358087538671197,1.6784737981117317,0.6769826814845017,0.7205658713763403,1.2971818832113335,-0.04162120210713397,0.9777961293840036,-1.6610862456813704,1.742390476672103,0.8563779259720723,0.957817595103182,1.7071931627253516,-0.4953668018131299,-0.08463799375332456,-0.017965641485507916
2,SITTING,-0.01267390265160643,0.028943084837908507,-0.07705849892354504,0.05545945042149235,0.023337878156575897,0.000998329968356766,0.041919542492268175,0.04367406781975598,0.02975378841491898,-0.0386526941434029,0.11427232443358455,0.024223202998537377,0.002792712124964412,0.03951441266077853,1.0043494432738496,0.022179137669216302,0.9420831469228118,1.05896967850561,0.018424176022509793,1.009209718352241,0.03144536764711958,0.3384285522552595,0.7666443653644496,-1.340857185407493,1.7823867954404453,0.6649004787652112,0.7022774679266505,1.3220833508895833,0.16198217879799784,0.9144688063001646,-1.7960683083689788,1.7600978840263293,0.7861515511706276,0.8624914239441943,1.6583552912980621,0.07124092686056735,0.9546425011390047,-1.808261037362958,1.7247839531112121,0.8615785156502533,0.9164175746408875,1.776156475838649,0.12042588711336255,-0.4195245373771315,-0.1747847257158764
2,SITTING,-0.00027747248970559505,0.032746795914639915,-0.06527877709986886,0.07750300150969294,0.02715332183910368,0.001072429633657621,0.047783759163507605,0.05600564226115771,0.02569216981310976,-0.006686994692214197,0.11667952177715102,0.02058316358928534,0.0037967195547904424,0.033826932989838715,1.007794464673199,0.0304256210469448,0.9385655852653872,1.0717726565818921,0.025272049326851655,1.0165754014420325,0.041783821142355015,0.3122843948917898,0.7449205395644123,-1.3387097294143118,1.6413216219293658,0.6324361383681198,0.6524281535578664,1.239786987067496,0.29389610320022286,0.7791374493822232,-1.6320165683989798,1.8995121257852041,0.6439407510985882,0.6934300845061125,1.2457527145699774,0.06436183094065204,0.9351479761914541,-1.7910848643633386,1.5849817021489092,0.8389418798257937,0.8786441826570055,1.7022148084152668,-0.11052389303493623,-0.6481030525864974,0.11620222784443242
2,SITTING,-0.0008925585770177406,0.026810081564656724,-0.07058216893377994,0.055192282455048716,0.02251791159126825,0.0007195771343169542,0.04012708189039796,0.053938067921415055,0.03138248622269839,-0.01531755051250279,0.1326753476405423,0.027100498074832245,0.0038941756126130377,0.05475376710398033,0.9966534960735945,0.031722294005475986,0.9229056930506506,1.0765004088912782,0.02648491275869392,0.9943244951726884,0.04719531556996137,-0.3019006095400848,0.8090436423073685,-1.7857295564361633,1.4258672473604639,0.6998823563862067,0.7456955931986478,1.3078318881929822,-0.16585325132043915,0.9040919642822469,-1.890386960109331,1.8920042878489072,0.8137156837953634,0.8448895808532925,1.5658401498950862,-0.004162717733361888,0.9665023226450737,-1.7442033523944733,1.6312057338716148,0.8682556240901848,0.93414406789725,1.7419514017717623,-0.2636782503539322,0.10768792511323665,-0.5530852937511049
2,SITTING,-0.0011635390655103783,0.025094988647798043,-0.07548309103368016,0.06560226189255688,0.019299747882091357,0.0006311122783900815,0.028863060895622638,0.05750312050924697,0.032875247541650686,-0.021187659896146856,0.12186968962073146,0.02721589828664056,0.004387390769225789,0.04694754284846215,1.00300619498032,0.031036010578925785,0.9348447978143992,1.0687371079350199,0.025902144158645554,1.0069846611215547,0.04501650925294043,-0.21861474221414376,0.7784849094619595,-1.5757716627109997,1.7635632907513663,0.6436455109081061,0.6538311597733517,1.0969678058570818,-0.2923604515102139,0.8266650189449586,-1.7434833779826246,1.6603927508083047,0.7133135156712196,0.7688496871545247,1.2911817592980885,-0.07658591969033324,0.9927415658190675,-2.2004511407492577,2.012164504646515,0.8908535334496371,0.9914012195997082,1.8616681975356566,-0.22624629352187745,0.16524947582082938,-0.5960618192783267
2,SITTING,0.009963140797357013,0.030418417115956223,-0.0710380606383794,0.07735744144439026,0.024549188772365595,0.001024544274388258,0.044255306055669866,0.06132491481569179,0.030104139257233774,-0.013668062773210168,0.1319458579966298,0.024232174627284754,0.004667004377570777,0.045990843226562425,0.9996704899304387,0.032586155702975905,0.9301002364143792,1.0833773422418462,0.027332627828986624,1.000402945981262,0.0473263152051574,-0.2757782329553131,0.760950660240977,-1.7196764964084914,1.5125696880789379,0.6516532309721976,0.6550995410931336,1.2314579985533671,-0.27821195055887094,0.8197642599776104,-1.9929265942598198,1.6155872600919057,0.6820489143645725,0.749415331370411,1.309862567840171,0.01958282915433016,0.978353544897063,-1.8015911917830008,1.7573690243380784,0.8773135838228392,0.9575591460103373,1.8698433591661818,-0.35987539377199,0.3271855436956207,-0.642950201617634
2,STANDING,0.0004719330338465587,0.018444744710228292,-0.037309702768457145,0.047912865578250974,0.015203937307218442,0.00034043132821393014,0.0259649457490194,0.021335136517749573,0.0185574890017902,-0.020492918722809658,0.06397766278176904,0.014944722707437325,0.0007995684482825757,0.022909173978589385,0.9854566197724555,0.020734489766490456,0.9368786533588261,1.0494559016915042,0.016407625122405955,0.9715546685192304,0.026999763095463702,-0.14835729553487065,0.5972414355412123,-1.1824708957033905,1.1084542799287735,0.5163273045116226,0.3787072194657489,1.0162108311159428,0.44988984837990553,0.44610764820603466,-0.8203049538732337,1.3591881652341842,0.350038051986833,0.40141290946321356,0.5885104456820185,-0.10143310140845736,0.5617877527112197,-1.0617231937145428,1.2098503074711096,0.4906433283075411,0.3258941531576609,0.9452801421234192,0.46411454181557793,-0.32828876056863937,-0.4040517759234214
2,STANDING,-0.010792448773252507,0.020308275105052915,-0.05829495977713836,0.03938006890730955,0.01662767680218482,0.0005289029882657915,0.029301120865672457,0.00778247811576463,0.01760406515366937,-0.02612540901693233,0.05247300155368244,0.01436169981941771,0.00037047007555699157,0.02644098401356003,1.001086357656921,0.02058780214504437,0.9496000160141388,1.0590365912347188,0.016683183572726225,1.0025977530839645,0.028158466846861963,0.38012541805206845,0.4728223003578401,-0.8401244277148201,1.245184450116919,0.4012248895691589,0.3680562611649394,0.7991062989712706,0.473544619272125,0.34086302992640405,-0.6954041799175411,1.1592742738710409,0.26324402521930795,0.3404321116121905,0.39481240488898667,-0.4919708251932319,0.36402506447439203,-1.2217784241015508,0.44163915228981926,0.2992379961778209,0.3745495404068948,0.494515173768329,0.30671745274725565,0.3780202594550169,0.24184150380667166
2,STANDING,0.012137742731082436,0.018988272465167363,-0.045087904608987234,0.05434438308819975,0.014408547958926345,0.0005078792898173777,0.018156981568727304,0.0017056439201744572,0.016526741334935972,-0.04003993451526647,0.04390603960744932,0.013363769494279292,0.0002760424003343093,0.020421556564933017,0.9856427848350182,0.016788767255857383,0.9468174318312602,1.0460376798369095,0.0133298293255251,0.9717735620033013,0.021936087796888715,-0.16270557358454604,0.6035437286387288,-1.1374395600696494,1.132309149445264,0.5155765113869974,0.3907381360546157,0.9827078475833108,-0.048262241009644616,0.637317703773092,-1.3668038829068916,1.094291557976769,0.5517293586847705,0.4085030994498797,1.0372605341685823,0.3502031000222402,0.4658351059884005,-0.6643972755449434,1.2112424692191666,0.3939702251714827,0.3396445572364115,0.6765949557276192,0.27270772931466175,0.17960520764688676,0.29714593923862764
2,STANDING,0.013671913407577129,0.020528558861607323,-0.04254712792935172,0.056253071700083965,0.016311729443823107,0.0006083429451587638,0.02543735495858643,0.017849796450953033,0.022094757562964164,-0.03787149223000958,0.07871971061780679,0.018022946813898946,0.0008067935451066177,0.030171161269669202,1.007249342705665,0.014601236301468227,0.9762983435672943,1.0579426439585393,0.011711632365408713,1.0147644344825255,0.019624640810463445,-0.326395113431377,0.5193284182965522,-1.3616046986492667,0.8797259928684482,0.4313433044954349,0.3762357761222801,0.7453556438881275,0.31883861942998315,0.49154263792923136,-0.9049415808085804,1.2571812729793717,0.4062510727038304,0.3432722301424451,0.7463653953781455,-0.3730854661434643,0.46960396032654045,-1.2836093407779372,0.6165321553908487,0.37722408875766816,0.35972064460185693,0.6140695107747247,0.3811203806800627,-0.06089546717941355,-0.19278960409640972
2,STANDING,-0.005348451271641436,0.01969265974642812,-0.05380755506578952,0.0451049493809763,0.01570870112082692,0.0004164067788937133,0.023947814108831685,0.035724835183206044,0.01872876117633305,-0.00965151287492038,0.08067888078061575,0.014957556777927622,0.001627030344067356,0.023375283085457815,1.0049219988668836,0.016806932020872672,0.963575573612077,1.049514428787148,0.013741418054308452,1.010150696770567,0.022475935096160526,-0.13644705946260408,0.5922228210879507,-1.1346380187165195,1.1983186535820078,0.5178862006738988,0.3693456698533622,1.0045787700854574,0.006909798789749986,0.5988002683007371,-1.3089127488348917,1.127723597336411,0.519409104979853,0.35860950663634944,1.0096785401347805,-0.17637895990505043,0.5716396610612248,-1.1265824941230629,0.9212292017182961,0.5017133674104745,0.3578814395953793,1.0068958566010622,-0.21926655090761016,-0.05240104582868675,0.29399441627047374
2,STANDING,-0.015151446509696744,0.016201211979932375,-0.05379530674599796,0.035142965689950165,0.013055486300898846,0.0004920456009549058,0.02193160863399317,0.022022322514717724,0.02148981311075515,-0.04336213632533302,0.07318466363645179,0.017087762815206454,0.000946794756477427,0.028778720576996597,1.0062641459924957,0.01704725369945988,0.9692149900246847,1.0452041422024752,0.01396186272700679,1.0128581403687003,0.02417123502903573,0.28784789547534306,0.5175846011549169,-0.8183204359968337,1.0983633597174474,0.4393537551141822,0.35075023028227836,0.7871295650816456,-0.19072072584177618,0.5901615202581909,-1.3085880889110613,0.986135730367468,0.5109684993998487,0.38466501525907304,0.966060516885028,-0.49234003538184856,0.3855211936932006,-1.2507602663155364,0.8268166713695918,0.3026749408763074,0.3910253012264302,0.4962287438257582,-0.07667210552678452,-0.19074667735818185,0.39775382312548185
2,STANDING,-0.015394331695251479,0.017007425432313615,-0.06128759103008727,0.033917369856072514,0.013510885845880978,0.0005262379681791323,0.021417181057914503,0.02194408269250883,0.01834050396671738,-0.02535439718087275,0.06423813095377254,0.014696660747338603,0.0008179168509688417,0.022694599003872287,0.9883818443582038,0.017746669213412936,0.935271872762228,1.0282882457756883,0.014023650203842795,0.9772136145250949,0.022236712162278738,0.43759461853785064,0.439980271538435,-0.5501130523733546,1.2382786241806196,0.363079713881371,0.3850716895163221,0.631508368889974,-0.5126032902209077,0.3494504556427091,-1.3521828480263325,0.2941996811103096,0.27867922856186317,0.3848777540941971,0.4349124589559018,-0.2669893450487598,0.5455896310127206,-1.2351170136461205,1.1232421674684852,0.4632844725008148,0.36895135583816235,0.9349075789758854,0.10891772122653108,0.29710535663386867,0.2880122992830677
2,STANDING,-0.013395382723269084,0.018545530967351242,-0.048989886255932605,0.04307027287827232,0.014999039967534076,0.0005233729971638397,0.023933601170016146,0.00612711410887325,0.017061394994828144,-0.040131816227825245,0.0495667896562209,0.014017970063017818,0.00032863272647270044,0.024098166747500933,0.9833740576105969,0.018739058498425918,0.9440830193226569,1.0330836199785818,0.015429217860155088,0.9673756894949369,0.029052931351387756,0.45944405749865175,0.35782582621050135,-0.4159514084718099,1.3971080026452753,0.28405711802944666,0.3391281638740523,0.45940370074613385,0.046232221365768,0.6180881506258215,-1.0760256511798794,1.134307225240488,0.5442705292255436,0.3841703802364615,1.0626520174082619,-0.3295736231924947,0.4947824606628069,-1.2821131446404817,1.0764177195068525,0.4133320895440624,0.3534284564837705,0.7253873248343291,0.21543115695429121,0.3291492064317606,0.14450427131089064
2,STANDING,0.00608033920390579,0.016214817539407247,-0.05417693046291443,0.039216286261344144,0.012902949878027425,0.00029989083267082257,0.022182297633754202,0.004488262346001778,0.017116186826984656,-0.03516858867119963,0.049010386711428405,0.01419384999188399,0.00031310835038278055,0.02568321583600542,1.0064087588331438,0.022866985509868397,0.9556086984591302,1.061836508066723,0.01923210064833444,1.0133814888823776,0.036055668678756314,-0.4890744632004186,0.346845754510311,-1.2204886091934768,0.4507699702838689,0.2757578437372434,0.3594958079766045,0.43660107621498095,0.40427740293784464,0.4747169555495243,-0.7018092490312678,1.2890155905043768,0.3912776968013029,0.38879640641237745,0.65075168577616,-0.14765320791837627,0.5869742117714072,-1.2935210968025488,1.0783978507182006,0.5017601975757635,0.3663401950932521,0.9961423203250526,-0.13032906356643187,0.12921781562944126,0.21296654443580104
2,STANDING,-0.014575284433938625,0.017640299588633158,-0.05128054812277316,0.029231760203680714,0.014354821148591407,0.0005236190859069447,0.023943888468581163,0.024477430470209456,0.018666773424090247,-0.018694356197493475,0.07535774419873814,0.015076873615405169,0.0009475930324902603,0.027595140164960008,0.9900177501450153,0.0225963330267746,0.9354918134360274,1.0601571104897847,0.01822573130332127,0.9806457398684545,0.028985553806334385,-0.2409050539443286,0.5398311217128723,-1.1926011934712577,0.8287379370106738,0.46019437402151125,0.3494528849856978,0.9293197969446882,-0.36193549249310447,0.4637567506572501,-1.1732522036052422,0.6354091339784909,0.39857406963240327,0.3460676245063969,0.7515618427993852,-0.17158889295294524,0.5861769386265578,-1.1061186538413226,1.0951067093396314,0.5047876969151002,0.37304615156242077,0.9838132062660496,-0.03580110348078872,-0.08864858508520096,-0.4813361694818931
2,STANDING,-0.005849798827916283,0.0215999516094752,-0.06168149096426925,0.04878342537528163,0.017976029464997042,0.0005007780558587609,0.03218854968477252,0.02577201416140204,0.01680377775710715,-0.010699913988636109,0.06949196414345875,0.013432001160168704,0.000946563660845756,0.02227688319832631,1.004223135671257,0.022046127436263347,0.955407004409086,1.0583611431738151,0.017604911416513144,1.0089501379523478,0.03158420839052656,0.4480119261528858,0.45234754313327674,-0.7986306124058975,1.3261005419301393,0.3657748802540399,0.4053329857539305,0.6329109866980367,-0.2893564898678459,0.5029889898756565,-1.1069143886414987,1.0559852464040964,0.42497038802627185,0.33672510216477414,0.7420540926967801,0.480013401689006,0.3276241916424165,-0.29282978939709026,1.189996284610195,0.27156321192174415,0.3377504767503979,0.5228228413191511,-0.36766793225877814,-0.5854371297401122,0.2952433910352705
2,STANDING,-0.002888538802552663,0.019407917176784834,-0.04742805647281485,0.05525360574851651,0.015805552216335082,0.0003850109055547921,0.028285143624264122,0.025659184111165287,0.016865400102674254,-0.024191561263695514,0.06659993510629222,0.01370826059431594,0.000942835449873962,0.023949729827690357,1.0035875218814037,0.01762276257809121,0.9477567853686946,1.0449648320305442,0.01422214770777004,1.0074984758369407,0.023468054547516992,-0.4779926129648913,0.34668678039235856,-1.2745822317670934,0.4463450224024408,0.28367436546216107,0.34866866174782385,0.49997548998381114,0.4663804171201517,0.3539188162829523,-0.40494717641885075,1.1740846494783255,0.29402290639538725,0.34276922199229287,0.5034669879236349,0.44811497684734947,0.4368835845504796,-0.664190161585932,1.2012735689857015,0.3689039272298829,0.3916742989245766,0.6004068547032098,-0.03847807187809891,0.26872471076216237,0.0441538584522644
2,LAYING,0.982934384900973,0.01734503695718605,0.9391573214982991,1.0351685541719502,0.013766706568101111,0.9664608553277003,0.02257534548752249,0.02163639551232176,0.019076300131785635,-0.023088733684248013,0.06533741234105186,0.015367137383302535,0.000832038837483582,0.026470183357333643,0.01891446871163545,0.021161874741715686,-0.04735013053914716,0.0637281104982103,0.017230645804927818,0.0008055820692275007,0.03206130546990889,-0.6073652073554316,0.3040405655554307,-1.4231494650515666,0.25757517156878934,0.24841429409143573,0.4613331606091727,0.4479993448905081,-0.1987088935407518,0.5235026010085325,-1.131591609538765,1.0197464786349162,0.4378014305960902,0.3135401976348886,0.7615015634861322,-0.19333484562988837,0.5130200243942163,-1.2795044394335924,1.0171920981135174,0.4419983578613573,0.3005679079641751,0.8358145181817601,0.19554021823929793,-0.3613299082089031,-0.357119584211917
2,LAYING,0.9877614520719769,0.015222524103443262,0.9520928734909614,1.0266553506958163,0.012247273269841864,0.9759044114394203,0.020962269136566736,0.03895251530224093,0.014448254466170611,-0.0077834478604188045,0.07790662888562504,0.011653046811076855,0.0017260505054905325,0.01937901765073163,0.03664975051100125,0.016894524857109648,-0.02469091774787493,0.08084343351868002,0.013259534416850639,0.0016286291826661317,0.022786459864110323,0.5945690500513995,0.2829862103768386,-0.04035108943687321,1.2822829488621892,0.23658437100346658,0.43359355054246795,0.40537478168511276,0.5745677553432869,0.35713660755254556,-0.32077924284329146,1.2488894333272988,0.29184879617515025,0.4576746619343641,0.5096411348609136,0.3537531398467533,0.4698779701756124,-0.8419751080448775,1.227325215060885,0.3902509637239018,0.3459265908077903,0.6485377488887087,0.04503334302136394,0.007840932377213627,0.010559338590682431
